accx,accy,accz
0.9132,-0.129,-0.3872
0.9176,-0.1241,-0.3884
0.9223,-0.116,-0.388
0.9267,-0.1121,-0.3848
0.9281,-0.1104,-0.3728
0.9293,-0.1124,-0.3608
0.9328,-0.1136,-0.3464
0.9345,-0.12,-0.3154
0.9333,-0.1263,-0.288
0.9271,-0.1334,-0.2587
0.9108,-0.1437,-0.2306
0.8949,-0.1593,-0.206
0.8805,-0.1695,-0.1891
0.8622,-0.181,-0.1747
0.8504,-0.1891,-0.1649
0.838,-0.1945,-0.1556
0.824,-0.194,-0.1542
0.803,-0.1923,-0.1502
0.7886,-0.1915,-0.1485
0.7776,-0.1908,-0.1476
0.7705,-0.1906,-0.1385
0.7674,-0.1881,-0.1336
0.7652,-0.1886,-0.1273
0.7661,-0.1879,-0.1204
0.7715,-0.1835,-0.1136
0.7786,-0.1788,-0.1102
0.7913,-0.1744,-0.1107
0.8033,-0.1683,-0.109
0.814,-0.1649,-0.1141
0.8282,-0.1603,-0.119
0.8353,-0.1561,-0.1266
0.8402,-0.1498,-0.1371
0.8451,-0.1473,-0.151
0.846,-0.1405,-0.1652
0.8389,-0.1351,-0.1761
0.8306,-0.128,-0.1791
0.8233,-0.1214,-0.1783
0.8131,-0.1143,-0.1713
0.8087,-0.1102,-0.1639
0.8021,-0.1065,-0.1515
0.8033,-0.1036,-0.139
0.8082,-0.1024,-0.1236
0.8162,-0.1009,-0.1109
0.825,-0.1011,-0.0945
0.835,-0.1048,-0.0801
0.8416,-0.1104,-0.0674
0.8519,-0.1146,-0.0518
0.8607,-0.1163,-0.0425
0.8612,-0.1151,-0.0335
0.8597,-0.1156,-0.0276
0.857,-0.1151,-0.0191
0.8534,-0.1151,-0.0161
0.8482,-0.1153,-0.0159
0.8426,-0.1182,-0.0164
0.8392,-0.1197,-0.0161
0.8375,-0.1239,-0.0122
0.8414,-0.1244,-0.0115
0.8477,-0.1273,-0.0081
0.8575,-0.1292,-0.0024
0.8795,-0.1314,0.0037
0.8968,-0.1331,0.01
0.9135,-0.1314,0.0183
0.9318,-0.1329,0.0274
0.9574,-0.1322,0.0371
0.9784,-0.1314,0.0413
0.9968,-0.1302,0.0418
1.0139,-0.1297,0.0403
1.0236,-0.1285,0.0283
1.0305,-0.1231,0.0188
1.039,-0.1178,0.0061
1.0476,-0.1094,-0.0105
1.0471,-0.0985,-0.0247
1.0456,-0.0811,-0.045
1.0471,-0.066,-0.053
1.052,-0.0523,-0.0603
1.0591,-0.0384,-0.0584
1.0779,-0.0279,-0.0472
1.1023,-0.0252,-0.0327
1.1292,-0.0232,-0.0178
1.1541,-0.0252,0.0002
1.1802,-0.0276,0.0235
1.201,-0.0386,0.0371
1.2137,-0.0518,0.0464
1.2245,-0.0682,0.052
1.233,-0.0855,0.0557
1.2421,-0.1048,0.0596
1.2494,-0.1168,0.0574
1.2496,-0.1283,0.0564
1.2486,-0.1363,0.053
1.2489,-0.1437,0.0506
1.2477,-0.1488,0.0469
1.2508,-0.1512,0.0388
1.2557,-0.1561,0.0296
1.2592,-0.1681,0.0066
1.2198,-0.1534,-0.0344
1.2064,-0.1356,-0.0755
1.2144,-0.1287,-0.1226
1.2169,-0.1175,-0.173
1.2386,-0.0904,-0.2245
1.2802,-0.074,-0.2526
1.3158,-0.0589,-0.2636
1.3327,-0.0437,-0.256
1.3205,-0.0227,-0.2397
1.3349,-0.0095,-0.2245
1.3652,-0.0012,-0.2116
1.3938,0.0007,-0.2121
1.4277,-0.0022,-0.2216
1.4729,-0.0151,-0.2392
1.5047,-0.0276,-0.2563
1.5286,-0.0403,-0.2729
1.5347,-0.0562,-0.2912
1.4969,-0.0794,-0.3083
1.4348,-0.1038,-0.3276
1.3564,-0.1336,-0.3452
1.2782,-0.1571,-0.3638
1.2118,-0.1732,-0.3711
1.137,-0.1857,-0.3635
1.0903,-0.1915,-0.345
1.0544,-0.1918,-0.3193
1.0256,-0.1874,-0.2893
0.996,-0.1761,-0.245
0.9745,-0.1625,-0.2152
0.9533,-0.1478,-0.1854
0.9313,-0.1319,-0.1634
0.9066,-0.1192,-0.1459
0.8888,-0.1068,-0.138
0.8773,-0.0985,-0.1424
0.8697,-0.0901,-0.1551
0.867,-0.0865,-0.1788
0.8705,-0.086,-0.1996
0.8724,-0.0901,-0.2238
0.8724,-0.095,-0.2441
0.8717,-0.1038,-0.2643
0.8761,-0.1148,-0.2888
0.8824,-0.1229,-0.3039
0.8915,-0.1292,-0.312
0.9052,-0.1351,-0.3174
0.9276,-0.1378,-0.3161
0.9367,-0.1366,-0.3178
0.9425,-0.1327,-0.3164
0.9457,-0.1314,-0.3166
0.9384,-0.1266,-0.3174
0.9271,-0.12,-0.3156
0.9159,-0.1148,-0.3142
0.9017,-0.1068,-0.309
0.8866,-0.0999,-0.3037
0.8688,-0.0916,-0.2905
0.8539,-0.0884,-0.2744
0.8411,-0.0862,-0.2514
0.8304,-0.0845,-0.2265
0.8128,-0.0836,-0.193
0.8016,-0.0831,-0.1654
0.7928,-0.0816,-0.1378
0.7854,-0.0772,-0.1129
0.7862,-0.0704,-0.096
0.7869,-0.0618,-0.0875
0.7869,-0.0594,-0.0877
0.7813,-0.0547,-0.0972
0.7686,-0.0523,-0.1141
0.75,-0.0515,-0.1361
0.7371,-0.0518,-0.1549
0.7271,-0.0528,-0.1713
0.7195,-0.0508,-0.1825
0.7173,-0.0525,-0.1925
0.7217,-0.0584,-0.1906
0.7251,-0.0655,-0.1791
0.7285,-0.0743,-0.1661
0.7334,-0.0838,-0.1449
0.7471,-0.0999,-0.1285
0.7576,-0.1104,-0.1178
0.7705,-0.1192,-0.1065
0.781,-0.1253,-0.097
0.7952,-0.1327,-0.0867
0.8052,-0.1388,-0.0762
0.8153,-0.1437,-0.065
0.817,-0.1466,-0.0484
0.8182,-0.1502,-0.0242
0.8196,-0.1532,-0.0093
0.8148,-0.1576,0.0064
0.8182,-0.1588,0.0205
0.8443,-0.1539,0.0283
0.8666,-0.1419,0.0393
0.8981,-0.1324,0.0274
0.9025,-0.1287,0.0293
0.8895,-0.1309,0.0366
0.8587,-0.1432,0.0447
0.8372,-0.1595,0.0467
0.8179,-0.1725,0.0484
0.8069,-0.1849,0.055
0.7974,-0.2001,0.0599
0.7923,-0.2079,0.0574
0.7916,-0.2152,0.054
0.7974,-0.2206,0.0462
0.8126,-0.2209,0.0376
0.8455,-0.2199,0.0257
0.8768,-0.2128,0.0137
0.9069,-0.2072,0.0083
0.9296,-0.1996,0.0042
0.9462,-0.1915,0.002
0.9543,-0.1864,-0.0007
0.9569,-0.184,0.0005
0.9521,-0.1849,0.0022
0.9438,-0.1876,0.0103
0.932,-0.1896,0.0237
0.9245,-0.1964,0.0418
0.9205,-0.2055,0.0645
0.9264,-0.2177,0.0989
0.9186,-0.2299,0.1297
0.9174,-0.2421,0.159
0.923,-0.2529,0.1915
0.9271,-0.2631,0.2172
0.9394,-0.2744,0.2382
0.9528,-0.2841,0.2485
0.9733,-0.2878,0.2497
1.0046,-0.2875,0.2372
1.0503,-0.28,0.2125
1.082,-0.2687,0.1862
1.1104,-0.2533,0.1605
1.1421,-0.2314,0.1302
1.1773,-0.2035,0.0897
1.2298,-0.1757,0.0621
1.2638,-0.1544,0.0342
1.2848,-0.1322,0.0049
1.3112,-0.1075,-0.02
1.3364,-0.0809,-0.0393
1.3498,-0.0643,-0.0462
1.3579,-0.0545,-0.043
1.3554,-0.0535,-0.0318
1.3432,-0.0616,-0.0107
1.3354,-0.0684,0.0151
1.328,-0.0772,0.042
1.3305,-0.084,0.0726
1.341,-0.0899,0.095
1.3593,-0.0989,0.1055
1.3718,-0.1051,0.1168
1.385,-0.0989,0.1212
1.4072,-0.0901,0.1197
1.4473,-0.12,0.0777
1.4541,-0.1564,0.0191
1.4292,-0.1986,-0.0452
1.3967,-0.2453,-0.1092
1.3618,-0.322,-0.1793
1.3774,-0.3965,-0.2265
1.3867,-0.4608,-0.245
1.3908,-0.4996,-0.2301
1.4118,-0.5145,-0.1717
1.458,-0.5204,-0.0645
1.491,-0.5177,0.0208
1.5093,-0.506,0.0794
1.5272,-0.4879,0.1002
1.5372,-0.4559,0.0865
1.5135,-0.4314,0.055
1.4639,-0.4102,0.0071
1.3921,-0.384,-0.0528
1.2865,-0.3418,-0.1305
1.2015,-0.3059,-0.1859
1.1157,-0.2707,-0.2267
1.0332,-0.2404,-0.2587
0.9579,-0.2096,-0.2778
0.8739,-0.1801,-0.2946
0.8165,-0.1605,-0.3037
0.7815,-0.1437,-0.311
0.7637,-0.1295,-0.3249
0.7422,-0.1224,-0.3564
0.7349,-0.1197,-0.399
0.7422,-0.1192,-0.4505
0.7549,-0.1168,-0.4999
0.7725,-0.1158,-0.5619
0.8016,-0.1134,-0.6086
0.8228,-0.1063,-0.6428
0.8485,-0.0955,-0.6628
0.8692,-0.0821,-0.6606
0.8773,-0.0677,-0.6264
0.871,-0.0569,-0.578
0.8604,-0.0569,-0.5148
0.8433,-0.0577,-0.4356
0.8289,-0.063,-0.3301
0.8221,-0.0704,-0.2277
0.8138,-0.0823,-0.1165
0.8236,-0.0892,-0.0269
0.8431,-0.0945,0.0836
0.8646,-0.0936,0.1642
0.8719,-0.0967,0.2253
0.8751,-0.095,0.2585
0.8707,-0.098,0.2624
0.858,-0.0992,0.2228
0.846,-0.0963,0.172
0.8382,-0.0989,0.1138
0.8265,-0.1004,0.0577
0.8096,-0.1102,-0.0032
0.7952,-0.1202,-0.0464
0.7864,-0.1261,-0.0833
0.7791,-0.1329,-0.1153
0.7752,-0.1373,-0.1522
0.7803,-0.1446,-0.1732
0.784,-0.1471,-0.1849
0.794,-0.1463,-0.1915
0.8008,-0.1456,-0.1888
0.8045,-0.1456,-0.172
0.805,-0.1439,-0.1522
0.8006,-0.14,-0.1302
0.7991,-0.1349,-0.1124
0.7957,-0.1231,-0.086
0.7935,-0.1141,-0.0689
0.7876,-0.1055,-0.0542
0.785,-0.0943,-0.0437
0.7781,-0.0811,-0.0347
0.7664,-0.0665,-0.0305
0.7647,-0.0545,-0.0342
0.7613,-0.0464,-0.0379
0.7512,-0.0369,-0.0415
0.7395,-0.0374,-0.0501
0.7285,-0.0401,-0.0545
0.7146,-0.0447,-0.052
0.7063,-0.0476,-0.0435
0.7053,-0.0506,-0.0283
0.7119,-0.0498,-0.0151
0.7268,-0.0518,-0.0066
0.7498,-0.0506,0.0024
0.774,-0.0489,0.0054
0.8109,-0.0437,0.0088
0.8402,-0.0396,0.0081
0.8668,-0.0325,0.0042
0.8973,-0.0249,-0.0037
0.9311,-0.0107,-0.0151
0.9589,0.0022,-0.0259
0.986,0.0129,-0.0335
1.0014,0.0235,-0.0354
1.0073,0.0303,-0.0342
1.0029,0.0335,-0.0257
0.997,0.0298,-0.0127
0.9924,0.0244,0.0046
0.9904,0.0144,0.0266
0.9858,0.0066,0.0574
0.9806,-0.0012,0.0848
0.9804,-0.01,0.1195
0.9814,-0.021,0.1576
0.985,-0.0344,0.2113
0.9941,-0.0457,0.258
1.0085,-0.0545,0.3083
1.0229,-0.0599,0.3577
1.0329,-0.064,0.4046
1.0398,-0.0594,0.4275
1.0422,-0.0491,0.4327
1.0498,-0.0315,0.4153
1.0598,-0.0078,0.3731
1.0659,0.0173,0.2924
1.0662,0.0369,0.2223
1.0635,0.0574,0.149
1.0574,0.0845,0.0821
1.0498,0.1244,0.0137
1.0466,0.1561,-0.042
1.0376,0.1849,-0.0977
1.0205,0.2084,-0.15
0.9997,0.2243,-0.1994
0.9679,0.2323,-0.245
0.9442,0.2301,-0.2639
0.9367,0.2165,-0.2504
0.942,0.1979,-0.2062
0.9643,0.1695,-0.1239
0.9965,0.1505,-0.0437
1.0329,0.128,0.0303
1.0742,0.1016,0.0914
1.125,0.065,0.1356
1.1556,0.053,0.152
1.1978,0.0616,0.1544
1.256,0.0777,0.1434
1.3139,0.0818,0.1099
1.372,0.0684,0.0406
1.4136,0.0506,-0.0115
1.4526,0.0381,-0.0542
1.4954,0.0296,-0.0836
1.5404,0.021,-0.1136
1.5772,0.0237,-0.1344
1.6051,0.0298,-0.16
1.6176,0.0428,-0.2069
1.5826,0.0459,-0.2797
1.4153,-0.001,-0.3569
1.2611,-0.0523,-0.4183
1.1226,-0.0872,-0.4444
1.0139,-0.1104,-0.431
0.9005,-0.1229,-0.3794
0.8162,-0.1287,-0.3303
0.7478,-0.1305,-0.2758
0.6826,-0.1358,-0.2257
0.6169,-0.1327,-0.1774
0.5653,-0.1314,-0.1502
0.5133,-0.1307,-0.1297
0.4547,-0.1317,-0.12
0.4038,-0.1402,-0.1126
0.4038,-0.1422,-0.1055
0.5135,-0.1055,-0.0928
0.6665,-0.0501,-0.0909
0.806,0.0005,-0.1121
0.9547,0.0464,-0.173
1.0522,0.0687,-0.2419
1.1243,0.0826,-0.3176
1.169,0.087,-0.3975
1.1947,0.0897,-0.4952
1.2267,0.0804,-0.5602
1.2626,0.0738,-0.6159
1.2931,0.0652,-0.655
1.3097,0.0537,-0.6909
1.3131,0.0418,-0.7063
1.2819,0.0242,-0.7102
1.2127,-0.0056,-0.7161
1.1324,-0.0401,-0.7085
1.0466,-0.0735,-0.6679
1.0065,-0.086,-0.6125
0.9894,-0.087,-0.535
0.986,-0.0816,-0.4476
0.999,-0.0655,-0.3364
1.019,-0.0491,-0.2612
1.0503,-0.0347,-0.2106
1.0776,-0.0249,-0.1884
1.1043,-0.0151,-0.1996
1.1292,-0.0064,-0.2448
1.1434,-0.0054,-0.2939
1.146,-0.0071,-0.3572
1.1397,-0.0181,-0.4268
1.1529,-0.0515,-0.4999
1.1612,-0.0799,-0.5367
1.1624,-0.1009,-0.5448
1.1685,-0.129,-0.5431
1.1678,-0.1708,-0.5233
1.1627,-0.2116,-0.504
1.147,-0.2619,-0.4798
1.1121,-0.321,-0.4505
1.074,-0.3994,-0.4168
1.0329,-0.5174,-0.3635
1.0065,-0.6015,-0.3005
0.9775,-0.6762,-0.2221
0.9406,-0.7359,-0.128
0.8939,-0.7881,0.0112
0.8602,-0.8116,0.1317
0.8363,-0.8069,0.2538
0.8153,-0.8033,0.3584
0.7891,-0.7737,0.4661
0.7776,-0.7166,0.5314
0.8001,-0.6577,0.5683
0.8211,-0.5961,0.5793
0.8353,-0.5372,0.559
0.8404,-0.4781,0.5128
0.8331,-0.4332,0.4688
0.8245,-0.3977,0.4253
0.8148,-0.3647,0.3865
0.8096,-0.3242,0.3396
0.8148,-0.2927,0.3056
0.8304,-0.2607,0.2768
0.8514,-0.2411,0.2448
0.8702,-0.2257,0.2081
0.8895,-0.2089,0.1798
0.9012,-0.1962,0.1556
0.9127,-0.1796,0.14
0.9218,-0.1676,0.1256
0.9347,-0.149,0.1185
0.9401,-0.1393,0.118
0.9513,-0.1334,0.1251
0.9623,-0.1217,0.1407
0.9826,-0.1004,0.172
1.0024,-0.0801,0.2086
1.0207,-0.0603,0.2455
1.0412,-0.0464,0.291
1.0532,-0.032,0.3469
1.0598,-0.0186,0.3838
1.0618,-0.0125,0.409
1.061,-0.0083,0.4161
1.0578,-0.0134,0.4099
1.0495,-0.0318,0.3889
1.0508,-0.0515,0.3667
1.0574,-0.0735,0.3418
1.0718,-0.0933,0.3164
1.0982,-0.12,0.2888
1.1255,-0.1412,0.2836
1.1504,-0.1586,0.2822
1.1805,-0.1622,0.2971
1.2125,-0.1554,0.3254
1.2491,-0.1375,0.3479
1.2684,-0.118,0.3801
1.2731,-0.0963,0.4104
1.2592,-0.0706,0.4332
1.2274,-0.0379,0.4505
1.1881,-0.0222,0.4507
1.1302,-0.0132,0.4356
1.0564,-0.0142,0.4102
0.953,-0.032,0.3809
0.8644,-0.0623,0.3762
0.7757,-0.1099,0.3936
0.6994,-0.1693,0.4376
0.6391,-0.237,0.5155
0.5973,-0.3222,0.6562
0.5898,-0.3862,0.7854
0.5922,-0.4351,0.9113
0.6081,-0.473,1.0212
0.6565,-0.4769,1.1287
0.7266,-0.4302,1.1666
0.8314,-0.3655,1.1118
0.9213,-0.3582,0.9547
0.9638,-0.4285,0.6782
0.9587,-0.545,0.4608
0.9149,-0.5956,0.256
0.8939,-0.5956,0.0865
0.9428,-0.536,-0.0132
1.1055,-0.4053,-0.0127
1.2894,-0.288,0.0572
1.4876,-0.1669,0.1754
1.6755,-0.045,0.302
1.8345,0.0916,0.4319
1.8704,0.1749,0.4654
1.8186,0.2191,0.4192
1.7395,0.2443,0.3169
1.5804,0.2455,0.1241
1.3215,0.2028,-0.0525
1.1429,0.1752,-0.2035
1.0041,0.1617,-0.3061
0.9008,0.16,-0.3525
0.8236,0.1671,-0.3452
0.805,0.1727,-0.302
0.8333,0.181,-0.2497
0.9015,0.1859,-0.1964
1.0144,0.1925,-0.1529
1.1028,0.1898,-0.1388
1.189,0.1867,-0.1412
1.2606,0.1815,-0.1634
1.3146,0.1749,-0.215
1.35,0.1595,-0.2714
1.3539,0.1488,-0.331
1.3669,0.14,-0.3816
1.3757,0.1378,-0.4158
1.3916,0.1405,-0.4268
1.3972,0.1454,-0.3977
1.3818,0.1454,-0.3337
1.3415,0.1366,-0.2453
1.2829,0.1214,-0.1163
1.2272,0.1124,-0.0164
1.1722,0.1082,0.0691
1.1189,0.0992,0.1346
1.0693,0.0919,0.1786
1.01,0.0909,0.1952
0.9677,0.0941,0.1896
0.9352,0.0953,0.1693
0.9083,0.0958,0.1375
0.889,0.0948,0.0909
0.8795,0.0958,0.0513
0.8668,0.0936,0.0093
0.8631,0.0862,-0.0298
0.8658,0.0735,-0.0711
0.8736,0.0577,-0.0953
0.89,0.0396,-0.1038
0.9088,0.0261,-0.1051
0.9298,0.0112,-0.0884
0.9645,0.0012,-0.0665
0.9899,-0.0037,-0.0415
1.0126,-0.0076,-0.0203
1.0312,-0.0117,0.0007
1.042,-0.0134,0.0235
1.0407,-0.0171,0.0384
1.0222,-0.0215,0.053
0.9933,-0.0247,0.0652
0.9423,-0.0325,0.0765
0.9047,-0.0418,0.0875
0.8512,-0.0432,0.0911
0.8028,-0.0467,0.0948
0.7593,-0.0552,0.1048
0.72,-0.0601,0.117
0.7024,-0.0623,0.1339
0.6916,-0.064,0.1544
0.6909,-0.0645,0.1749
0.6985,-0.065,0.1896
0.7095,-0.0738,0.192
0.7124,-0.0826,0.1862
0.7124,-0.0967,0.1725
0.7136,-0.119,0.148
0.7146,-0.1349,0.1214
0.719,-0.1476,0.0899
0.7271,-0.159,0.0552
0.738,-0.1681,0.0217
0.7515,-0.1791,-0.01
0.7644,-0.1869,-0.023
0.7808,-0.1906,-0.0217
0.8013,-0.1915,-0.0142
0.8326,-0.1845,0.0112
0.8697,-0.1754,0.0398
0.9061,-0.1627,0.0728
0.9416,-0.151,0.1031
0.9833,-0.1358,0.1368
1.0078,-0.1246,0.1556
1.0192,-0.1158,0.1617
1.0229,-0.1129,0.1598
1.0224,-0.1085,0.1542
1.0205,-0.1058,0.1397
1.0249,-0.1065,0.1319
1.0229,-0.108,0.1229
1.02,-0.108,0.1153
1.0139,-0.1136,0.1143
1.0078,-0.1163,0.1173
1.0004,-0.12,0.1229
0.9955,-0.1261,0.1295
0.9897,-0.1312,0.1351
0.9745,-0.1385,0.1427
0.9547,-0.141,0.1417
0.9433,-0.1422,0.139
0.9376,-0.1388,0.1346
0.9313,-0.1268,0.1234
0.9254,-0.1163,0.1202
0.9127,-0.0992,0.116
0.9132,-0.0804,0.1055
0.9032,-0.0542,0.0909
0.8917,-0.0362,0.0818
0.871,-0.0232,0.0733
0.8568,-0.0147,0.0594
0.8407,-0.0034,0.0506
0.8275,0.0081,0.0479
0.8209,0.0169,0.045
0.8192,0.0217,0.0513
0.8211,0.0252,0.0638
0.8282,0.0281,0.0801
0.8399,0.0222,0.0963
0.8563,0.0198,0.1099
0.8824,0.0164,0.1261
0.9132,0.0117,0.1371
0.9345,0.0127,0.1371
0.9501,0.0107,0.1283
0.9682,0.0122,0.1136
0.9792,0.0125,0.0892
0.9924,0.0086,0.0652
1.0031,0.0059,0.045
1.0065,0.0044,0.0313
1.0107,0.001,0.0249
1.0151,-0.0056,0.0296
1.0197,-0.0088,0.042
1.0229,-0.0137,0.0655
1.0241,-0.0173,0.0985
1.0232,-0.0203,0.14
1.0239,-0.0232,0.1744
1.0307,-0.0239,0.2018
1.0339,-0.0264,0.2223
1.0412,-0.0327,0.2328
1.051,-0.0396,0.2284
1.0574,-0.0496,0.2174
1.0544,-0.0584,0.2028
1.0679,-0.0672,0.1805
1.0864,-0.0809,0.1573
1.0972,-0.0936,0.1444
1.1004,-0.1024,0.1393
1.1055,-0.1014,0.1393
1.1157,-0.1041,0.1441
1.1221,-0.1055,0.1502
1.135,-0.1114,0.1537
1.1387,-0.1163,0.1446
1.1328,-0.1043,0.127
1.139,-0.0899,0.088
1.1617,-0.0804,0.0469
1.1812,-0.0726,0.0039
1.2098,-0.0625,-0.0303
1.2723,-0.0557,-0.0589
1.3234,-0.0493,-0.0711
1.3285,-0.0547,-0.0855
1.3581,-0.0535,-0.0938
1.4456,-0.0503,-0.086
1.5267,-0.0452,-0.0721
1.5995,-0.0403,-0.0579
1.6703,-0.041,-0.0498
1.7275,-0.0452,-0.0428
1.7964,-0.0572,-0.0388
1.8455,-0.0699,-0.0386
1.8677,-0.0801,-0.0479
1.8868,-0.0928,-0.0606
1.8606,-0.1048,-0.0726
1.7698,-0.1209,-0.087
1.6276,-0.1449,-0.1104
1.4903,-0.1625,-0.1322
1.3693,-0.1717,-0.1422
1.2438,-0.1801,-0.1385
1.169,-0.1808,-0.128
1.1077,-0.1783,-0.1158
1.0664,-0.1722,-0.1046
1.0173,-0.16,-0.0928
0.9836,-0.1476,-0.0921
0.9557,-0.1363,-0.096
0.9323,-0.1241,-0.1085
0.9086,-0.1099,-0.138
0.8976,-0.0999,-0.1632
0.8856,-0.0919,-0.1976
0.8727,-0.0848,-0.2292
0.8629,-0.0779,-0.2629
0.8568,-0.0755,-0.2902
0.8602,-0.0762,-0.3134
0.8722,-0.0828,-0.3303
0.89,-0.0919,-0.3401
0.9208,-0.1041,-0.3494
0.9482,-0.1163,-0.345
0.9716,-0.1292,-0.3391
0.9916,-0.1393,-0.3257
1.0109,-0.1498,-0.3015
1.0195,-0.1546,-0.28
1.0227,-0.1588,-0.2585
1.0202,-0.1627,-0.236
1.01,-0.162,-0.2138
0.9899,-0.162,-0.1986
0.9697,-0.1571,-0.1864
0.9455,-0.1476,-0.1757
0.9208,-0.1383,-0.1686
0.8878,-0.1297,-0.1664
0.8614,-0.1226,-0.162
0.8314,-0.116,-0.1571
0.8065,-0.1085,-0.1456
0.7745,-0.1002,-0.1305
0.7544,-0.0938,-0.1141
0.7373,-0.0872,-0.0977
0.7244,-0.0796,-0.0826
0.7185,-0.0726,-0.073
0.7104,-0.0638,-0.0672
0.7068,-0.0533,-0.0738
0.707,-0.0459,-0.084
0.7085,-0.0371,-0.1014
0.7141,-0.0293,-0.1207
0.72,-0.0264,-0.1393
0.729,-0.0266,-0.1578
0.7354,-0.0274,-0.1722
0.7395,-0.0303,-0.1891
0.7422,-0.0408,-0.1957
0.741,-0.0555,-0.1972
0.7337,-0.0748,-0.1893
0.7229,-0.1004,-0.1766
0.7024,-0.127,-0.1559
0.6865,-0.1505,-0.1317
0.6731,-0.1744,-0.108
0.6672,-0.1952,-0.0794
0.6692,-0.2172,-0.0406
0.6767,-0.2279,-0.0125
0.6946,-0.2331,0.0115
0.7166,-0.2362,0.033
0.7368,-0.2382,0.0459
0.7605,-0.2426,0.0501
0.7757,-0.2453,0.0445
0.7872,-0.2502,0.0376
0.7918,-0.2492,0.0298
0.8023,-0.2482,0.0205
0.8096,-0.2404,0.012
0.8189,-0.2309,0.0044
0.8287,-0.2209,-0.0064
0.8443,-0.204,-0.0191
0.8565,-0.1884,-0.0293
0.8714,-0.1749,-0.0406
0.9025,-0.1566,-0.066
0.9318,-0.1388,-0.0755
0.9479,-0.1131,-0.0662
0.9477,-0.1055,-0.0481
0.9342,-0.1031,-0.0227
0.9215,-0.1051,0.0061
0.903,-0.1138,0.0428
0.8915,-0.1202,0.0699
0.8849,-0.1331,0.0921
0.8834,-0.1424,0.1046
0.8966,-0.1468,0.1082
0.9078,-0.1527,0.1014
0.9289,-0.1561,0.096
0.9496,-0.1576,0.088
0.9626,-0.1612,0.0784
0.9792,-0.163,0.066
0.9916,-0.163,0.0613
0.9965,-0.1664,0.0547
0.9963,-0.1725,0.0501
0.9912,-0.1805,0.0435
0.9792,-0.1898,0.0418
0.9665,-0.2013,0.0386
0.9565,-0.2101,0.0388
0.9572,-0.2233,0.0413
0.9694,-0.2272,0.0535
0.9853,-0.227,0.0672
0.9909,-0.226,0.0792
1.0002,-0.226,0.0936
1.0188,-0.2299,0.1053
1.0312,-0.2255,0.1217
1.0498,-0.2235,0.1339
1.0684,-0.2162,0.141
1.1013,-0.2001,0.1309
1.1184,-0.1869,0.1129
1.1289,-0.1754,0.0884
1.1297,-0.1688,0.066
1.1209,-0.1573,0.0408
1.1148,-0.1466,0.0227
1.114,-0.1336,0.0098
1.1118,-0.1222,0.0049
1.1126,-0.1134,0.0054
1.1123,-0.1134,0.0183
1.1135,-0.1187,0.0369
1.1157,-0.1268,0.0611
1.1219,-0.1329,0.0767
1.1368,-0.1327,0.0882
1.1651,-0.162,0.0821
1.1649,-0.1964,0.0667
1.1499,-0.2223,0.0569
1.1497,-0.2399,0.052
1.1658,-0.2553,0.0452
1.1961,-0.2778,0.0381
1.2228,-0.3078,0.0344
1.2457,-0.3435,0.0347
1.2562,-0.3904,0.0239
1.2626,-0.4266,0.0139
1.2753,-0.4549,-0.0017
1.2953,-0.4786,-0.02
1.3322,-0.4979,-0.044
1.3767,-0.4972,-0.0621
1.4375,-0.4815,-0.0711
1.5074,-0.4578,-0.0694
1.5704,-0.4327,-0.0696
1.6124,-0.3985,-0.0765
1.6151,-0.3672,-0.1116
1.5912,-0.3327,-0.172
1.5518,-0.2905,-0.2421
1.4927,-0.2436,-0.3283
1.4424,-0.2089,-0.3919
1.3877,-0.1791,-0.4402
1.3351,-0.1554,-0.4781
1.2694,-0.1329,-0.5042
1.2203,-0.1256,-0.5133
1.168,-0.1197,-0.5091
1.1182,-0.1275,-0.4901
1.0718,-0.1385,-0.4529
1.019,-0.1581,-0.4109
0.9804,-0.1769,-0.366
0.9521,-0.1957,-0.3225
0.9289,-0.2162,-0.2783
0.911,-0.2299,-0.2377
0.9047,-0.2397,-0.2091
0.903,-0.2446,-0.191
0.912,-0.2443,-0.1788
0.933,-0.2287,-0.1757
0.9516,-0.216,-0.1779
0.9679,-0.1984,-0.1886
0.9819,-0.1864,-0.2011
0.9887,-0.1757,-0.2243
0.9885,-0.1654,-0.2455
0.9868,-0.1595,-0.2692
0.9897,-0.1529,-0.2956
0.9912,-0.1461,-0.3244
0.9987,-0.1341,-0.3596
1.008,-0.1266,-0.3833
1.0136,-0.1185,-0.4016
1.0168,-0.1131,-0.4112
1.0173,-0.1033,-0.4134
1.0148,-0.0958,-0.4087
1.0058,-0.0899,-0.3924
0.9943,-0.0848,-0.3733
0.9802,-0.0818,-0.3401
0.9567,-0.0806,-0.3064
0.942,-0.0794,-0.268
0.9264,-0.0794,-0.225
0.9091,-0.0801,-0.1783
0.8841,-0.0872,-0.1224
0.8607,-0.0933,-0.0826
0.8475,-0.1021,-0.0586
0.8272,-0.1082,-0.0288
0.8001,-0.1224,-0.0042
0.7757,-0.1336,0.0093
0.7556,-0.1446,0.0188
0.7371,-0.1559,0.0198
0.7251,-0.1598,0.022
0.7097,-0.1659,0.0164
0.7007,-0.1686,0.0078
0.696,-0.173,-0.0007
0.6907,-0.1749,-0.0103
0.6875,-0.1754,-0.0186
0.6843,-0.1749,-0.0266
0.6897,-0.1717,-0.0391
0.6894,-0.1661,-0.0498
0.6882,-0.1544,-0.0677
0.6875,-0.1422,-0.0801
0.6885,-0.1248,-0.0955
0.6973,-0.1085,-0.1082
0.7034,-0.0897,-0.1195
0.71,-0.0689,-0.1246
0.7173,-0.0586,-0.1236
0.7227,-0.0496,-0.1156
0.7231,-0.0442,-0.1004
0.719,-0.0398,-0.0767
0.7185,-0.043,-0.0552
0.7214,-0.0467,-0.0293
0.7236,-0.055,-0.0093
0.7258,-0.0674,0.0115
0.7239,-0.0821,0.0254
0.7244,-0.0945,0.0381
0.7273,-0.1033,0.0479
0.7351,-0.1121,0.0584
0.7442,-0.1185,0.0711
0.7517,-0.1207,0.0774
0.7615,-0.1236,0.0865
0.7752,-0.1246,0.0899
0.7896,-0.1202,0.0965
0.8052,-0.1134,0.0972
0.8233,-0.1065,0.1009
0.8421,-0.0989,0.1048
0.8739,-0.0853,0.107
0.901,-0.0801,0.1102
0.9291,-0.0794,0.1087
0.9569,-0.076,0.1124
0.9914,-0.0755,0.1094
1.0344,-0.0777,0.118
1.0735,-0.084,0.1163
1.1028,-0.0853,0.1165
1.1426,-0.0858,0.1029
1.1541,-0.0884,0.0977
1.1746,-0.085,0.0865
1.2083,-0.073,0.0757
1.254,-0.0611,0.0547
1.2838,-0.0523,0.0369
1.3124,-0.0474,0.0217
1.3215,-0.0459,-0.0049
1.3256,-0.0428,-0.0217
1.3298,-0.0376,-0.0376
1.3266,-0.0274,-0.0496
1.3488,-0.0169,-0.064
1.3544,-0.0076,-0.0559
1.3588,-0.0056,-0.0454
1.3569,-0.009,-0.0169
1.3571,-0.0166,0.0061
1.371,-0.0244,0.02
1.3652,-0.0362,0.0188
1.3368,-0.0244,0.0134
1.3261,-0.0357,-0.0054
1.3388,-0.0545,-0.0296
1.3495,-0.0762,-0.0384
1.3757,-0.087,-0.0445
1.4096,-0.0831,-0.0264
1.418,-0.0701,-0.0144
1.4346,-0.0684,-0.0215
1.4646,-0.0787,-0.0525
1.4966,-0.0943,-0.1163
1.5159,-0.1065,-0.1783
1.5379,-0.1209,-0.2441
1.564,-0.1285,-0.299
1.5875,-0.1331,-0.3433
1.5961,-0.1268,-0.3601
1.5619,-0.1241,-0.3677
1.482,-0.1344,-0.3748
1.3855,-0.1534,-0.3799
1.255,-0.1715,-0.386
1.1607,-0.1739,-0.3779
1.0847,-0.1693,-0.3608
1.0251,-0.1571,-0.3345
0.9606,-0.139,-0.2951
0.9115,-0.1209,-0.2651
0.8636,-0.1038,-0.237
0.8172,-0.0889,-0.2147
0.7769,-0.0789,-0.1915
0.7407,-0.0694,-0.1754
0.7227,-0.0667,-0.1647
0.7129,-0.0667,-0.1542
0.7124,-0.0687,-0.1534
0.7278,-0.0762,-0.1673
0.7498,-0.084,-0.1908
0.7823,-0.0958,-0.2228
0.8218,-0.1065,-0.2626
0.8722,-0.1241,-0.3139
0.9137,-0.138,-0.354
0.9557,-0.1456,-0.3928
0.9899,-0.1556,-0.4266
1.0207,-0.1637,-0.4542
1.0437,-0.1713,-0.4649
1.0522,-0.1774,-0.4644
1.0495,-0.1813,-0.4515
1.0359,-0.1869,-0.4278
1.0063,-0.1959,-0.3823
0.9789,-0.2084,-0.3347
0.9518,-0.2182,-0.2822
0.9203,-0.2253,-0.2274
0.8807,-0.2318,-0.1605
0.8595,-0.2348,-0.1138
0.8367,-0.2362,-0.0757
0.8153,-0.2345,-0.0464
0.7911,-0.2321,-0.0298
0.7639,-0.2213,-0.0279
0.7473,-0.2135,-0.0296
0.7332,-0.2047,-0.0386
0.7249,-0.1935,-0.0515
0.7212,-0.1803,-0.076
0.7253,-0.1652,-0.0953
0.7312,-0.1485,-0.1138
0.7459,-0.1305,-0.1312
0.7644,-0.1092,-0.1466
0.7766,-0.0953,-0.1568
0.7854,-0.0887,-0.1642
0.7876,-0.0862,-0.1671
0.7925,-0.0892,-0.1659
0.7964,-0.0965,-0.1568
0.7991,-0.1014,-0.1429
0.7989,-0.1119,-0.1251
0.7959,-0.1285,-0.1063
0.7896,-0.1493,-0.0826
0.7828,-0.1681,-0.0687
0.7786,-0.1793,-0.0542
0.7742,-0.1906,-0.0435
0.7718,-0.2018,-0.0349
0.7676,-0.2091,-0.0298
0.762,-0.215,-0.0281
0.7608,-0.2157,-0.0286
0.7508,-0.215,-0.02
0.7351,-0.2152,-0.0159
0.7239,-0.2152,-0.0122
0.7192,-0.2133,-0.0068
0.7253,-0.2096,-0.0034
0.7608,-0.193,-0.0156
0.8021,-0.1766,-0.0283
0.827,-0.1642,-0.0359
0.8358,-0.1571,-0.0296
0.8277,-0.1608,-0.0132
0.8165,-0.1757,0.0083
0.8074,-0.1845,0.0281
0.8065,-0.1888,0.0447
0.8043,-0.1901,0.0535
0.8045,-0.192,0.045
0.8096,-0.1932,0.033
0.8157,-0.1913,0.021
0.8135,-0.1869,0.0051
0.8123,-0.1813,-0.021
0.8084,-0.1732,-0.0469
0.8062,-0.1664,-0.0672
0.8013,-0.1605,-0.087
0.7962,-0.1578,-0.1019
0.7952,-0.1551,-0.1068
0.7957,-0.1546,-0.1029
0.806,-0.161,-0.0923
0.8275,-0.1617,-0.0713
0.869,-0.163,-0.0413
0.9093,-0.1615,-0.022
0.9494,-0.1586,-0.0093
0.9868,-0.1546,-0.002
1.0351,-0.1495,-0.0064
1.0603,-0.1456,-0.012
1.0842,-0.14,-0.0222
1.0999,-0.1375,-0.0303
1.1096,-0.1356,-0.0354
1.1153,-0.1373,-0.0401
1.114,-0.1402,-0.0386
1.1094,-0.1461,-0.0318
1.1116,-0.1544,-0.021
1.1018,-0.16,0.0034
1.0945,-0.1695,0.0247
1.0962,-0.1798,0.0481
1.1006,-0.182,0.073
1.1138,-0.1874,0.0926
1.1302,-0.1862,0.1036
1.1529,-0.1842,0.1082
1.1678,-0.1832,0.1085
1.1802,-0.1832,0.1004
1.2013,-0.1805,0.0901
1.2193,-0.1771,0.0765
1.2381,-0.1703,0.0613
1.2599,-0.1617,0.0481
1.2853,-0.1529,0.0332
1.3024,-0.1432,0.0213
1.3156,-0.128,0.0105
1.3342,-0.1195,0.0007
1.3342,-0.15,-0.0291
1.3063,-0.1791,-0.0555
1.2814,-0.2094,-0.0777
1.2701,-0.2428,-0.0933
1.2709,-0.281,-0.1036
1.2975,-0.3288,-0.1016
1.3278,-0.3694,-0.0977
1.3471,-0.4065,-0.0982
1.3601,-0.4354,-0.1031
1.3759,-0.46,-0.118
1.3972,-0.4776,-0.1273
1.4246,-0.4854,-0.1405
1.4578,-0.4793,-0.1488
1.5091,-0.4503,-0.1551
1.5472,-0.4239,-0.1556
1.5728,-0.3977,-0.1576
1.5704,-0.3701,-0.1625
1.5289,-0.3457,-0.203
1.4568,-0.3086,-0.2546
1.3906,-0.2783,-0.312
1.3219,-0.247,-0.3704
1.254,-0.2152,-0.4231
1.1771,-0.1827,-0.4705
1.1238,-0.1605,-0.4933
1.0779,-0.148,-0.4969
1.0337,-0.1444,-0.4835
0.9831,-0.1502,-0.4432
0.942,-0.1586,-0.3943
0.9008,-0.1715,-0.3398
0.8626,-0.1903,-0.2853
0.8311,-0.2089,-0.2267
0.8003,-0.2316,-0.1918
0.7845,-0.245,-0.1678
0.7828,-0.2516,-0.1593
0.7933,-0.2526,-0.162
0.8214,-0.2441,-0.182
0.8485,-0.2345,-0.2055
0.8683,-0.2248,-0.2333
0.8834,-0.2169,-0.2614
0.8917,-0.2035,-0.2893
0.8971,-0.195,-0.311
0.9003,-0.1832,-0.3301
0.9076,-0.1715,-0.3452
0.9132,-0.1588,-0.3584
0.9225,-0.1459,-0.3699
0.9308,-0.139,-0.3709
0.9381,-0.1334,-0.3613
0.9425,-0.1283,-0.3454
0.9469,-0.1312,-0.3095
0.9479,-0.138,-0.2785
0.9501,-0.1446,-0.2426
0.9508,-0.1524,-0.2074
0.9433,-0.159,-0.1615
0.9325,-0.1676,-0.129
0.9154,-0.1781,-0.106
0.8944,-0.1893,-0.0889
0.8692,-0.2018,-0.0777
0.8397,-0.2128,-0.0735
0.8145,-0.2189,-0.0711
0.7984,-0.2221,-0.0826
0.7842,-0.2221,-0.0926
0.7615,-0.2196,-0.1053
0.7444,-0.2201,-0.1224
0.7366,-0.2133,-0.1344
0.731,-0.2079,-0.1468
0.7249,-0.2016,-0.162
0.7253,-0.1886,-0.171
0.7285,-0.1764,-0.1779
0.7332,-0.1634,-0.1808
0.7376,-0.1493,-0.1801
0.7451,-0.1278,-0.1769
0.7539,-0.1116,-0.1722
0.7622,-0.0965,-0.171
0.7713,-0.0831,-0.1722
0.7823,-0.0696,-0.1742
0.7845,-0.0581,-0.1759
0.7852,-0.0523,-0.1749
0.782,-0.0476,-0.1713
0.7862,-0.045,-0.1598
0.7862,-0.045,-0.149
0.7847,-0.045,-0.1407
0.7828,-0.0445,-0.129
0.7808,-0.0469,-0.1163
0.7813,-0.0493,-0.1016
0.7806,-0.0528,-0.0921
0.7784,-0.0564,-0.0811
0.7796,-0.0586,-0.0721
0.7771,-0.0613,-0.0633
0.7745,-0.0638,-0.0577
0.7718,-0.0672,-0.053
0.771,-0.0682,-0.0493
0.7705,-0.0694,-0.0489
0.7696,-0.0718,-0.0462
0.773,-0.0743,-0.0476
0.7774,-0.073,-0.0496
0.7884,-0.0757,-0.0447
0.8113,-0.0792,-0.044
0.8289,-0.0821,-0.0403
0.8338,-0.0836,-0.0344
0.8438,-0.0862,-0.0279
0.8578,-0.0901,-0.0166
0.8729,-0.0941,-0.0112
0.8824,-0.0963,-0.0046
0.8898,-0.0975,0.0027
0.8993,-0.098,0.0061
0.9091,-0.0997,0.0088
0.9161,-0.0923,0.0105
0.9308,-0.0882,0.0127
0.9506,-0.0782,0.0149
0.9846,-0.065,0.0159
1.0097,-0.0513,0.0142
1.0363,-0.0354,0.0078
1.0644,-0.0237,0.0012
1.106,-0.0073,-0.0049
1.1485,0.0044,-0.0156
1.1866,0.0129,-0.0235
1.2257,0.0176,-0.0349
1.2626,0.0159,-0.0498
1.2931,0.0049,-0.0584
1.3063,-0.0125,-0.0643
1.3129,-0.0332,-0.0638
1.3109,-0.0567,-0.0591
1.3,-0.0836,-0.044
1.2973,-0.1068,-0.0257
1.2924,-0.1266,-0.0054
1.286,-0.1375,0.0222
1.2809,-0.1424,0.0613
1.2858,-0.1437,0.095
1.3017,-0.1454,0.118
1.3173,-0.1444,0.1341
1.3351,-0.1449,0.1368
1.3449,-0.1483,0.1156
1.33,-0.1234,0.0836
1.3329,-0.1068,0.0464
1.3459,-0.1085,-0.0024
1.3725,-0.1134,-0.0542
1.4028,-0.1156,-0.0792
1.4255,-0.1085,-0.0906
1.4426,-0.0982,-0.0967
1.4798,-0.086,-0.1038
1.5137,-0.0877,-0.1192
1.5416,-0.0948,-0.1498
1.5619,-0.1011,-0.1849
1.5799,-0.1077,-0.2348
1.6232,-0.1129,-0.2639
1.6554,-0.1099,-0.28
1.6728,-0.0931,-0.2841
1.6559,-0.0784,-0.2773
1.5394,-0.0821,-0.2834
1.4265,-0.0958,-0.3073
1.3158,-0.108,-0.3318
1.2247,-0.1099,-0.3513
1.1267,-0.1107,-0.3582
1.0603,-0.1109,-0.3494
1.0007,-0.1114,-0.3337
0.9467,-0.1112,-0.3108
0.9059,-0.1087,-0.2783
0.8556,-0.1109,-0.2455
0.816,-0.1151,-0.224
0.7803,-0.1204,-0.2111
0.7512,-0.1236,-0.203
0.7209,-0.1329,-0.1976
0.7058,-0.1402,-0.202
0.6977,-0.1466,-0.2125
0.6999,-0.1507,-0.2294
0.7251,-0.1554,-0.258
0.7698,-0.152,-0.2714
0.8272,-0.1446,-0.2844
0.8753,-0.14,-0.301
0.912,-0.1373,-0.3169
0.9328,-0.1437,-0.3369
0.9286,-0.152,-0.3523
0.9152,-0.1639,-0.3674
0.8956,-0.1747,-0.3753
0.8751,-0.1813,-0.3721
0.859,-0.1864,-0.3591
0.8451,-0.1898,-0.3384
0.8319,-0.194,-0.3098
0.8157,-0.1964,-0.2656
0.7986,-0.1994,-0.2272
0.7837,-0.1935,-0.1874
0.7766,-0.1859,-0.1505
0.7671,-0.1771,-0.1212
0.7559,-0.1659,-0.0877
0.7454,-0.1532,-0.0711
0.7359,-0.1393,-0.063
0.7239,-0.1258,-0.0591
0.7136,-0.1021,-0.0665
0.7122,-0.0826,-0.0782
0.7131,-0.0657,-0.0963
0.7148,-0.0452,-0.1109
0.7144,-0.0291,-0.1295
0.7112,-0.0191,-0.1419
0.7139,-0.0147,-0.1505
0.7124,-0.0125,-0.1515
0.7153,-0.0147,-0.1463
0.7173,-0.0276,-0.1358
0.717,-0.0425,-0.1192
0.7158,-0.064,-0.1068
0.7163,-0.0845,-0.0904
0.7222,-0.1104,-0.0726
0.7351,-0.1292,-0.0606
0.752,-0.1437,-0.0508
0.7803,-0.1551,-0.044
0.805,-0.1644,-0.0354
0.8433,-0.172,-0.0462
0.8741,-0.1769,-0.0496
0.9025,-0.1801,-0.0594
0.9174,-0.1805,-0.0647
0.9242,-0.182,-0.063
0.9144,-0.184,-0.0533
0.8954,-0.1915,-0.0315
0.8727,-0.2006,-0.0086
0.8482,-0.2128,0.0159
0.8382,-0.2233,0.0335
0.8314,-0.2311,0.044
0.8319,-0.2367,0.0555
0.838,-0.2433,0.0623
0.8597,-0.2426,0.0586
0.8834,-0.2397,0.0496
0.9066,-0.2343,0.0403
0.9301,-0.2316,0.0261
0.9489,-0.2296,0.0088
0.9582,-0.2309,-0.0081
0.966,-0.236,-0.0193
0.9709,-0.2358,-0.023
0.9824,-0.2365,-0.0232
0.9946,-0.2292,-0.0213
1.0112,-0.2248,-0.02
1.0254,-0.2167,-0.0252
1.042,-0.2133,-0.0322
1.0574,-0.2067,-0.0388
1.0637,-0.206,-0.0435
1.074,-0.2003,-0.0491
1.0857,-0.1964,-0.0508
1.1023,-0.1874,-0.0503
1.1233,-0.1801,-0.0533
1.1514,-0.1713,-0.0577
1.1832,-0.1654,-0.0633
1.212,-0.1654,-0.0708
1.2289,-0.1683,-0.0699
1.2445,-0.1713,-0.0672
1.2616,-0.1747,-0.0569
1.2741,-0.1749,-0.0347
1.2948,-0.1788,-0.0171
1.3066,-0.1783,0.0066
1.3215,-0.1823,0.0303
1.34,-0.1754,0.0537
1.3786,-0.182,0.0711
1.3784,-0.2103,0.0591
1.3547,-0.2187,0.043
1.3425,-0.2311,0.0186
1.3395,-0.2577,-0.0249
1.351,-0.2778,-0.0621
1.3786,-0.2988,-0.0911
1.3903,-0.3183,-0.1207
1.3767,-0.3403,-0.1632
1.3219,-0.3652,-0.2233
1.2675,-0.3865,-0.2739
1.2115,-0.4131,-0.3269
1.1673,-0.4346,-0.3699
1.1372,-0.4485,-0.3884
1.1443,-0.438,-0.3638
1.1839,-0.406,-0.3049
1.2377,-0.3713,-0.2331
1.2902,-0.3281,-0.141
1.3183,-0.2817,-0.0963
1.3268,-0.234,-0.0872
1.3215,-0.1854,-0.1295
1.296,-0.1356,-0.2028
1.2594,-0.0767,-0.3159
1.2186,-0.0381,-0.4134
1.1788,-0.0144,-0.5016
1.1333,0.0024,-0.5763
1.0798,0.0046,-0.6425
1.0341,-0.0056,-0.6733
0.9946,-0.0266,-0.675
0.9577,-0.052,-0.664
0.9139,-0.0945,-0.6222
0.8898,-0.1297,-0.5822
0.8727,-0.1656,-0.5372
0.8614,-0.1979,-0.492
0.8539,-0.226,-0.4498
0.8451,-0.2585,-0.4055
0.8399,-0.2773,-0.3711
0.8314,-0.29,-0.3398
0.8216,-0.2966,-0.3115
0.8099,-0.2988,-0.2856
0.8011,-0.2966,-0.2702
0.7933,-0.2875,-0.2543
0.794,-0.2695,-0.238
0.8001,-0.2519,-0.2081
0.8165,-0.2274,-0.173
0.8416,-0.2094,-0.1356
0.8497,-0.1952,-0.0936
0.8482,-0.1864,-0.0577
0.8341,-0.1732,-0.0188
0.8177,-0.1637,0.0
0.8001,-0.1527,0.0127
0.7845,-0.139,0.0198
0.7595,-0.1256,0.0144
0.7385,-0.1214,0.0056
0.7163,-0.1146,-0.011
0.6997,-0.1085,-0.0259
0.6909,-0.1041,-0.0547
0.6819,-0.0955,-0.0762
0.6799,-0.0928,-0.0972
0.6809,-0.0909,-0.1209
0.6806,-0.0904,-0.1402
0.6767,-0.0909,-0.1605
0.6728,-0.0921,-0.1752
0.6689,-0.0963,-0.1832
0.6648,-0.098,-0.1815
0.6577,-0.1014,-0.1627
0.6555,-0.1019,-0.1415
0.6518,-0.1094,-0.1119
0.6523,-0.1131,-0.077
0.6543,-0.1195,-0.0354
0.6589,-0.1307,-0.0071
0.6643,-0.1415,0.0203
0.6733,-0.1473,0.043
0.6814,-0.1517,0.0584
0.6929,-0.1566,0.0687
0.7068,-0.1522,0.0633
0.7295,-0.1419,0.0506
0.7586,-0.1295,0.0286
0.7908,-0.1131,-0.0056
0.815,-0.0987,-0.033
0.8382,-0.0838,-0.0608
0.8629,-0.0718,-0.0884
0.8885,-0.063,-0.1165
0.9198,-0.0569,-0.1331
0.9477,-0.0562,-0.1463
0.9753,-0.054,-0.151
1.0021,-0.0552,-0.1554
1.0334,-0.0586,-0.1556
1.0591,-0.0611,-0.1459
1.0903,-0.055,-0.1109
1.1067,-0.0616,-0.1041
1.1311,-0.0723,-0.1031
1.1524,-0.0772,-0.0906
1.1685,-0.0799,-0.0735
1.1859,-0.0843,-0.0574
1.1971,-0.0909,-0.0293
1.2022,-0.0987,-0.01
1.2037,-0.1109,0.0066
1.1983,-0.1258,0.0129
1.1986,-0.1329,0.0127
1.1954,-0.1371,0.0217
1.1893,-0.1395,0.0186
1.1751,-0.1361,0.0213
1.1724,-0.1341,0.0134
1.1705,-0.1295,-0.0032
1.1812,-0.1212,-0.0171
1.1978,-0.1099,-0.0327
1.2254,-0.098,-0.0508
1.2518,-0.085,-0.064
1.2934,-0.0772,-0.0755
1.32,-0.0779,-0.0723
1.3478,-0.0875,-0.0755
1.362,-0.0997,-0.0999
1.3383,-0.0853,-0.151
1.3185,-0.0647,-0.194
1.3085,-0.0547,-0.2221
1.3139,-0.0513,-0.2436
1.3517,-0.055,-0.2624
1.3789,-0.0415,-0.2678
1.3933,-0.0193,-0.2692
1.4045,-0.002,-0.2792
1.4253,0.0076,-0.312
1.4443,0.0078,-0.3545
1.468,0.002,-0.4075
1.4981,-0.0115,-0.4578
1.5206,-0.0222,-0.4979
1.5513,-0.0259,-0.5287
1.5623,-0.03,-0.5333
1.5125,-0.0454,-0.5184
1.4101,-0.0711,-0.502
1.2679,-0.1138,-0.4779
1.158,-0.1471,-0.4542
1.0591,-0.1725,-0.4327
0.9814,-0.194,-0.409
0.9174,-0.2123,-0.3838
0.8722,-0.2248,-0.3474
0.8475,-0.2328,-0.3186
0.8199,-0.2411,-0.2959
0.8006,-0.2541,-0.2726
0.7803,-0.2665,-0.2531
0.7639,-0.2763,-0.2428
0.7486,-0.2812,-0.2377
0.7322,-0.2807,-0.2384
0.7224,-0.2751,-0.2482
0.7305,-0.2612,-0.2631
0.7603,-0.2399,-0.289
0.7957,-0.2135,-0.3161
0.8287,-0.1928,-0.3484
0.8612,-0.172,-0.387
0.87,-0.1644,-0.4163
0.8714,-0.1612,-0.4336
0.8678,-0.1639,-0.4427
0.8653,-0.1686,-0.4354
0.868,-0.1764,-0.4141
0.8736,-0.1796,-0.385
0.8778,-0.1823,-0.3457
0.8859,-0.1871,-0.3003
0.8854,-0.1906,-0.2595
0.8817,-0.1945,-0.2238
0.8707,-0.1986,-0.1867
0.8568,-0.1994,-0.1505
0.8321,-0.1952,-0.1104
0.8109,-0.192,-0.0848
0.783,-0.1867,-0.0662
0.7569,-0.1796,-0.0535
0.7214,-0.1673,-0.0535
0.6965,-0.1576,-0.0618
0.6772,-0.1441,-0.0682
0.6704,-0.1314,-0.0667
0.6679,-0.1202,-0.0616
0.665,-0.1112,-0.0594
0.6679,-0.1041,-0.0613
0.6716,-0.1004,-0.0679
0.6758,-0.0977,-0.0723
0.6789,-0.1021,-0.0767
0.6845,-0.1033,-0.0828
0.6899,-0.1077,-0.0872
0.7004,-0.1109,-0.0967
0.7236,-0.1112,-0.1043
0.749,-0.1092,-0.1151
0.7742,-0.1009,-0.1317
0.7828,-0.0982,-0.1393
0.8153,-0.0965,-0.1796
0.8485,-0.0919,-0.1976
0.8582,-0.088,-0.2062
0.8607,-0.0884,-0.2152
0.8551,-0.0948,-0.2152
0.8365,-0.1036,-0.1959
0.817,-0.1119,-0.1546
0.7945,-0.1268,-0.1058
0.7788,-0.1424,-0.0537
0.7747,-0.1637,0.0005
0.7769,-0.1788,0.0335
0.783,-0.1969,0.0545
0.7925,-0.2162,0.066
0.8006,-0.2299,0.0699
0.8145,-0.2441,0.0608
0.8321,-0.2489,0.0423
0.8517,-0.2555,0.0166
0.8739,-0.2531,-0.0103
0.9003,-0.2487,-0.0396
0.9225,-0.2443,-0.0572
0.9418,-0.2411,-0.0638
0.955,-0.2387,-0.0643
0.9667,-0.234,-0.0682
0.9855,-0.2257,-0.0704
1.0031,-0.2167,-0.0721
1.0222,-0.2025,-0.0726
1.0344,-0.1869,-0.0752
1.039,-0.1737,-0.0745
1.042,-0.16,-0.0799
1.0444,-0.151,-0.0843
1.0473,-0.1429,-0.0845
1.0493,-0.1339,-0.0831
1.0495,-0.1309,-0.0789
1.05,-0.1283,-0.0726
1.0495,-0.129,-0.0623
1.0571,-0.1312,-0.0484
1.0669,-0.1346,-0.0374
1.0911,-0.1415,-0.0244
1.1201,-0.1534,-0.0098
1.1526,-0.1654,0.0046
1.1949,-0.1854,0.02
1.2232,-0.2069,0.0335
1.2486,-0.2321,0.0474
1.2675,-0.2646,0.0557
1.286,-0.3051,0.0581
1.2953,-0.3374,0.0525
1.3007,-0.3623,0.043
1.2992,-0.387,0.0254
1.289,-0.4077,0.0034
1.2694,-0.4038,-0.0086
1.2604,-0.3775,-0.0071
1.2765,-0.3371,-0.0049
1.3078,-0.3056,-0.0149
1.321,-0.2861,-0.0437
1.3122,-0.2895,-0.0828
1.2872,-0.2971,-0.1287
1.2579,-0.3105,-0.1757
1.2333,-0.3362,-0.2309
1.2242,-0.3713,-0.2722
1.2081,-0.4051,-0.3152
1.1907,-0.4297,-0.3349
1.1907,-0.4446,-0.3108
1.2245,-0.4444,-0.2526
1.275,-0.4417,-0.1783
1.3368,-0.4358,-0.1068
1.4094,-0.418,-0.0374
1.4793,-0.3985,-0.0078
1.4981,-0.3787,-0.0161
1.4776,-0.356,-0.0718
1.4363,-0.3303,-0.173
1.3718,-0.2932,-0.3203
1.3156,-0.2612,-0.4344
1.266,-0.2314,-0.5377
1.2223,-0.1969,-0.6259
1.1739,-0.1568,-0.707
1.1404,-0.127,-0.749
1.106,-0.1014,-0.7723
1.0813,-0.0796,-0.7798
1.0586,-0.0667,-0.7713
1.0359,-0.0601,-0.7517
1.0122,-0.0669,-0.7183
0.9828,-0.0867,-0.6718
0.9489,-0.1134,-0.6144
0.9037,-0.1419,-0.5367
0.8695,-0.1671,-0.4659
0.8367,-0.1898,-0.3946
0.8094,-0.2072,-0.3166
0.785,-0.2235,-0.2194
0.7671,-0.234,-0.1473
0.753,-0.2384,-0.0826
0.7461,-0.2404,-0.031
0.738,-0.2353,0.0115
0.7354,-0.2284,0.0403
0.7464,-0.2209,0.0493
0.7635,-0.213,0.0513
0.7835,-0.206,0.0486
0.8072,-0.1952,0.0491
0.8243,-0.1874,0.041
0.836,-0.1801,0.0239
0.846,-0.1737,-0.0073
0.8587,-0.1608,-0.0393
0.8678,-0.1502,-0.0701
0.8732,-0.14,-0.0963
0.8734,-0.1349,-0.1202
0.8712,-0.1309,-0.1378
0.867,-0.1278,-0.1522
0.8619,-0.128,-0.1617
0.8641,-0.1266,-0.1669
0.8626,-0.1239,-0.1705
0.8641,-0.1163,-0.1739
0.8629,-0.1085,-0.1732
0.8604,-0.1009,-0.1656
0.8568,-0.0938,-0.1576
0.8475,-0.0882,-0.1424
0.8294,-0.0843,-0.1283
0.8089,-0.0843,-0.1141
0.7923,-0.0897,-0.0999
0.7727,-0.0933,-0.0816
0.7415,-0.1002,-0.064
0.7302,-0.1029,-0.0469
0.7217,-0.1026,-0.0266
0.7139,-0.1051,-0.0086
0.7046,-0.1058,0.0125
0.6982,-0.1094,0.0232
0.6933,-0.1114,0.0296
0.6911,-0.1163,0.0266
0.688,-0.116,0.0125
0.6875,-0.1109,-0.0027
0.6877,-0.1075,-0.023
0.6929,-0.1033,-0.0457
0.699,-0.1021,-0.0713
0.6997,-0.0997,-0.1026
0.6955,-0.1031,-0.1226
0.6877,-0.1104,-0.1349
0.6828,-0.118,-0.1407
0.6831,-0.1268,-0.1363
0.688,-0.1322,-0.1156
0.7136,-0.1253,-0.0596
0.6999,-0.1446,-0.063
0.7019,-0.1549,-0.0503
0.7102,-0.1654,-0.0325
0.7195,-0.1671,-0.01
0.7361,-0.1615,0.0059
0.7644,-0.1483,0.0183
0.8033,-0.1148,0.0381
0.8306,-0.0877,0.0401
0.8499,-0.0594,0.0364
0.86,-0.0279,0.0344
0.8624,0.0083,0.0327
0.8585,0.0303,0.0391
0.8597,0.053,0.0552
0.8536,0.0716,0.077
0.8575,0.0823,0.098
0.8714,0.0853,0.1185
0.8986,0.0828,0.1466
0.9318,0.0716,0.1764
0.9762,0.0496,0.1952
1.0405,0.0134,0.2143
1.0972,-0.0154,0.2209
1.1546,-0.0445,0.2196
1.213,-0.0738,0.2013
1.2719,-0.1068,0.1837
1.3007,-0.1224,0.1769
1.3259,-0.1173,0.1761
1.3469,-0.0967,0.1771
1.3601,-0.0621,0.1542
1.3676,-0.0151,0.1165
1.3525,0.0215,0.0826
1.3324,0.0584,0.0452
1.3097,0.0894,0.0183
1.275,0.118,0.011
1.2501,0.1324,0.022
1.2303,0.1371,0.0513
1.2122,0.139,0.098
1.1998,0.1378,0.1622
1.2,0.1204,0.2211
1.2132,0.0955,0.2775
1.232,0.0567,0.3181
1.2469,0.011,0.3305
1.2176,-0.0027,0.3005
1.1829,0.0064,0.2382
1.1778,0.0064,0.1468
1.1961,0.0095,0.0396
1.2218,0.0225,-0.1136
1.2469,0.0364,-0.2499
1.2833,0.0633,-0.3542
1.3422,0.0999,-0.431
1.4541,0.1522,-0.4554
1.5548,0.1825,-0.474
1.6224,0.1876,-0.5052
1.6835,0.1747,-0.5365
1.747,0.1515,-0.549
1.8164,0.1236,-0.5438
1.8667,0.1094,-0.535
1.8978,0.0992,-0.5194
1.9129,0.0943,-0.4984
1.8885,0.0801,-0.4644
1.7123,0.0357,-0.4522
1.5254,-0.0103,-0.4485
1.3955,-0.0401,-0.4278
1.2836,-0.0665,-0.3772
1.2074,-0.0823,-0.3279
1.1453,-0.1046,-0.2915
1.094,-0.1287,-0.2709
1.0427,-0.1532,-0.2621
0.9784,-0.1864,-0.2753
0.9215,-0.213,-0.3066
0.867,-0.2402,-0.3476
0.8001,-0.2631,-0.4021
0.7114,-0.2905,-0.4857
0.6364,-0.302,-0.5487
0.5619,-0.3108,-0.6061
0.4908,-0.311,-0.6516
0.4165,-0.3046,-0.6904
0.384,-0.2915,-0.6973
0.4512,-0.247,-0.6721
0.6523,-0.1612,-0.5976
0.8221,-0.0733,-0.5003
0.9621,0.0093,-0.3931
1.0234,0.0555,-0.3152
1.0591,0.0882,-0.2497
1.0811,0.1063,-0.1969
1.0759,0.1097,-0.152
1.0327,0.0943,-0.141
0.9726,0.0682,-0.1524
0.9218,0.0469,-0.1759
0.8917,0.0354,-0.2089
0.8866,0.0362,-0.2309
0.8961,0.044,-0.2529
0.903,0.0503,-0.2685
0.9088,0.0525,-0.2756
0.9066,0.0547,-0.2739
0.9008,0.0542,-0.2668
0.8917,0.0513,-0.2502
0.8766,0.0476,-0.2301
0.8453,0.0459,-0.2016
0.8209,0.0432,-0.1752
0.7952,0.0418,-0.1502
0.7693,0.042,-0.1268
0.7415,0.0435,-0.0997
0.7139,0.0388,-0.0909
0.7014,0.0315,-0.0816
0.6921,0.022,-0.0848
0.6992,0.0139,-0.0975
0.7175,0.0066,-0.1253
0.7356,-0.0012,-0.1515
0.7539,-0.0064,-0.1823
0.7745,-0.0144,-0.2099
0.8087,-0.022,-0.2402
0.8314,-0.0281,-0.2575
0.8526,-0.0352,-0.2734
0.8692,-0.0437,-0.2829
0.8849,-0.0515,-0.2841
0.8968,-0.0528,-0.2719
0.9003,-0.0506,-0.256
0.901,-0.0464,-0.2316
0.8981,-0.0396,-0.2016
0.8868,-0.0318,-0.1588
0.8732,-0.0271,-0.1239
0.8563,-0.0208,-0.0899
0.8421,-0.0161,-0.0611
0.8328,-0.0103,-0.0313
0.8297,-0.0049,-0.0161
0.8204,0.0017,-0.0034
0.8138,0.0103,0.0042
0.817,0.0198,0.0122
0.824,0.0366,0.0115
0.8331,0.0493,0.01
0.8455,0.0655,0.0059
0.8712,0.0826,-0.0032
0.911,0.1038,-0.0271
0.9391,0.1156,-0.0581
0.9618,0.1287,-0.0904
0.9836,0.1368,-0.1331
1.0024,0.1373,-0.1869
1.0241,0.1273,-0.2253
1.0322,0.13,-0.2441
1.0293,0.1353,-0.2551
1.0148,0.1339,-0.2651
0.9882,0.1246,-0.2665
0.9601,0.1146,-0.2597
0.9362,0.1073,-0.2458
0.9242,0.1004,-0.2223
0.9091,0.0931,-0.1805
0.9042,0.0862,-0.141
0.9032,0.0767,-0.1038
0.8993,0.064,-0.0708
0.9008,0.0432,-0.0408
0.9059,0.0249,-0.0208
0.9149,0.0049,-0.0032
0.9318,-0.01,0.0093
0.9601,-0.0288,0.0335
0.9968,-0.0491,0.0418
1.0148,-0.0572,0.0511
1.03,-0.0696,0.0603
1.0324,-0.0911,0.0701
1.0117,-0.1168,0.0806
0.9902,-0.1395,0.0787
0.9731,-0.1549,0.074
0.9574,-0.1617,0.0667
0.9357,-0.1649,0.0645
0.9247,-0.1659,0.0674
0.9142,-0.1666,0.0782
0.8973,-0.1669,0.0914
0.8822,-0.1664,0.1182
0.8683,-0.1637,0.1471
0.8636,-0.163,0.1796
0.8582,-0.1573,0.2106
0.8499,-0.1488,0.2384
0.8316,-0.1356,0.2741
0.8265,-0.1222,0.2995
0.826,-0.1082,0.3274
0.828,-0.0943,0.3501
0.8336,-0.084,0.374
0.8429,-0.0752,0.3853
0.8492,-0.0684,0.3884
0.8612,-0.0618,0.3819
0.8783,-0.0503,0.3667
0.9027,-0.0352,0.3525
0.9279,-0.022,0.3279
0.954,-0.0103,0.3076
0.9821,-0.0005,0.2834
1.0158,0.0115,0.2516
1.0366,0.0144,0.2206
1.053,0.0154,0.1964
1.0598,0.0154,0.1815
1.0613,0.0051,0.1791
1.0512,-0.002,0.1869
1.0385,-0.0166,0.1962
1.0256,-0.0266,0.2118
1.0207,-0.0374,0.2375
1.0144,-0.055,0.267
1.0122,-0.074,0.2993
1.007,-0.0894,0.3301
0.9977,-0.1065,0.3542
0.9777,-0.1234,0.3735
0.9591,-0.1353,0.3753
0.9406,-0.1441,0.3652
0.9262,-0.148,0.3479
0.9078,-0.1524,0.3244
0.8934,-0.1559,0.3147
0.8802,-0.1603,0.3144
0.8717,-0.161,0.331
0.8739,-0.1571,0.3804
0.8932,-0.1422,0.4312
0.911,-0.1402,0.4737
0.9179,-0.1478,0.5025
0.9154,-0.161,0.5196
0.9096,-0.1796,0.5328
0.9056,-0.1891,0.546
0.9059,-0.1871,0.5621
0.913,-0.1752,0.5793
0.9225,-0.1566,0.5915
0.9223,-0.1351,0.5827
0.9218,-0.1114,0.5553
0.9337,-0.096,0.515
0.9533,-0.0948,0.4547
0.9902,-0.1087,0.3909
1.0276,-0.1305,0.3156
1.063,-0.1571,0.2328
1.0933,-0.1884,0.1583
1.1319,-0.2172,0.1305
1.1734,-0.213,0.1749
1.222,-0.1857,0.2463
1.2604,-0.1437,0.3103
1.2851,-0.0843,0.3489
1.2963,-0.0279,0.3303
1.2946,0.0369,0.2788
1.2802,0.1068,0.2089
1.2333,0.1796,0.107
1.1878,0.2751,0.0298
1.1605,0.3513,-0.042
1.1204,0.4192,-0.1112
1.0227,0.4463,-0.1998
0.9535,0.4613,-0.299
0.9176,0.4613,-0.365
0.8876,0.4485,-0.4266
0.8761,0.4183,-0.4813
0.8841,0.3809,-0.5301
0.9039,0.352,-0.5653
0.9384,0.331,-0.5907
0.9992,0.3103,-0.6098
1.0769,0.2822,-0.6215
1.2096,0.2595,-0.6135
1.3251,0.2438,-0.589
1.4341,0.2343,-0.5497
1.5347,0.2355,-0.4937
1.6439,0.2411,-0.4033
1.7116,0.2472,-0.3156
1.7375,0.247,-0.2204
1.6459,0.216,-0.1224
1.4096,0.141,-0.0525
1.2484,0.0953,-0.0088
1.1236,0.0699,0.0344
1.0354,0.065,0.0706
0.9863,0.0757,0.1085
0.9589,0.098,0.1234
0.9516,0.1112,0.1273
0.9428,0.1165,0.1178
0.9357,0.116,0.1009
0.924,0.1036,0.0772
0.9232,0.0897,0.0501
0.924,0.0757,0.0242
0.9308,0.0621,0.0044
0.9398,0.0391,-0.0142
0.955,0.023,-0.0205
0.9772,0.0054,-0.0225
0.999,-0.0081,-0.0186
1.019,-0.0178,-0.0115
1.0461,-0.0252,-0.0078
1.0659,-0.0274,-0.0034
1.0803,-0.0283,-0.0049
1.0896,-0.0266,-0.0034
1.0881,-0.022,0.001
1.0835,-0.012,0.0093
1.0727,-0.002,0.0166
1.0618,0.0132,0.0237
1.0517,0.0337,0.0286
1.0429,0.0513,0.0349
1.0346,0.0655,0.033
1.0236,0.077,0.033
1.0107,0.0818,0.0308
0.9916,0.087,0.0315
0.9787,0.0906,0.0283
0.9648,0.0906,0.0239
0.9474,0.0904,0.0205
0.9291,0.0845,0.0122
0.9205,0.0774,0.0051
0.9103,0.0716,-0.0039
0.9047,0.0669,-0.0142
0.8981,0.0608,-0.0208
0.8946,0.0569,-0.03
0.8954,0.0537,-0.0376
0.8929,0.0489,-0.0479
0.8939,0.0432,-0.0528
0.9054,0.0401,-0.0498
0.9154,0.0366,-0.041
0.9296,0.034,-0.0325
0.9472,0.0325,-0.0225
0.9679,0.0222,-0.0056
0.9843,0.0095,0.0098
0.9965,-0.0071,0.0315
1.0056,-0.0286,0.0559
1.0166,-0.0547,0.0799
1.0219,-0.0748,0.0941
1.0266,-0.0933,0.1011
1.0285,-0.1121,0.1053
1.0334,-0.1292,0.1092
1.0368,-0.1468,0.1141
1.0388,-0.1581,0.1175
1.0256,-0.1717,0.1268
1.0153,-0.184,0.1307
0.999,-0.1972,0.1329
0.9899,-0.2084,0.1273
0.9755,-0.2172,0.1229
0.9643,-0.2274,0.1222
0.9516,-0.2326,0.1331
0.9425,-0.2253,0.1454
0.9325,-0.2177,0.1678
0.9271,-0.2055,0.1972
0.9264,-0.1886,0.2287
0.9174,-0.1588,0.2595
0.9115,-0.1327,0.278
0.9047,-0.108,0.2841
0.8927,-0.0794,0.2758
0.8639,-0.0459,0.2477
0.86,-0.0266,0.2152
0.8607,-0.0064,0.1781
0.8648,0.0117,0.1483
0.8722,0.0344,0.1187
0.8758,0.0472,0.1016
0.8822,0.0616,0.0904
0.8893,0.0752,0.0821
0.8993,0.0889,0.0774
0.9108,0.0994,0.0713
0.9122,0.107,0.0677
0.9159,0.1102,0.0616
0.9071,0.1124,0.0559
0.8937,0.1146,0.0493
0.8775,0.1178,0.0442
0.8526,0.1192,0.0371
0.8292,0.1212,0.0298
0.8082,0.1236,0.0274
0.7886,0.1295,0.0291
0.774,0.1329,0.0366
0.7676,0.1427,0.0454
0.7573,0.1512,0.0559
0.7454,0.1715,0.0789
0.7444,0.1837,0.1004
0.7432,0.195,0.1246
0.7415,0.1989,0.1375
0.7385,0.1969,0.1419
0.7363,0.1908,0.1309
0.7295,0.1842,0.1073
0.7317,0.1788,0.0806
0.7505,0.1737,0.0442
0.7713,0.1664,0.0166
0.7959,0.1576,-0.0037
0.8258,0.148,-0.0195
0.8536,0.1327,-0.0217
0.8946,0.1185,-0.0183
0.9298,0.1131,-0.0024
0.966,0.1082,0.0154
0.9831,0.0992,0.0428
0.9846,0.0796,0.0684
0.9775,0.0621,0.0899
