accx,accy,accz
1.169,0.1338,-0.2892
1.171,0.1304,-0.2628
1.1695,0.1289,-0.2418
1.1616,0.1255,-0.2183
1.1519,0.1177,-0.1934
1.1465,0.1167,-0.1719
1.1377,0.1118,-0.1489
1.1279,0.103,-0.1294
1.1211,0.1001,-0.1104
1.1142,0.0972,-0.0966
1.1064,0.0913,-0.0839
1.0947,0.082,-0.0727
1.0859,0.0772,-0.0644
1.0718,0.0723,-0.0654
1.06,0.0645,-0.0654
1.0488,0.0591,-0.0585
1.0405,0.0542,-0.061
1.0287,0.0483,-0.0664
1.0082,0.04,-0.0678
0.9916,0.0336,-0.0742
0.9755,0.0312,-0.0815
0.9638,0.0219,-0.0913
0.9476,0.0141,-0.1044
0.9247,0.0097,-0.1152
0.9032,0.0029,-0.127
0.8861,-0.0045,-0.1309
0.8578,-0.0167,-0.1392
0.8377,-0.0206,-0.1514
0.8201,-0.0245,-0.1563
0.8001,-0.0279,-0.1572
0.7766,-0.0323,-0.1572
0.7595,-0.0352,-0.1607
0.7429,-0.0406,-0.1553
0.7243,-0.0425,-0.1519
0.7097,-0.0445,-0.1465
0.6931,-0.0484,-0.1387
0.6769,-0.0455,-0.1299
0.6628,-0.0479,-0.1216
0.6437,-0.0499,-0.1084
0.6241,-0.0484,-0.0996
0.6095,-0.0494,-0.081
0.5865,-0.0538,-0.0707
0.5724,-0.0523,-0.059
0.5587,-0.0553,-0.0497
0.5353,-0.0518,-0.0405
0.522,-0.0513,-0.0248
0.5074,-0.0523,-0.0102
0.4878,-0.0523,0.0006
0.4747,-0.0508,0.0138
0.4595,-0.0513,0.026
0.4522,-0.0523,0.0367
0.439,-0.0504,0.0436
0.4292,-0.0455,0.0529
0.4194,-0.0377,0.0646
0.4228,-0.0357,0.0739
0.4288,-0.0362,0.0817
0.4322,-0.0347,0.087
0.4405,-0.0294,0.087
0.4541,-0.0294,0.0895
0.4742,-0.0269,0.088
0.4937,-0.0269,0.0831
0.5196,-0.022,0.0807
0.5499,-0.023,0.0758
0.5773,-0.0186,0.0646
0.5988,-0.0162,0.0524
0.6271,-0.0172,0.0372
0.6535,-0.0157,0.027
0.6809,-0.0137,0.0153
0.7043,-0.0113,-0.0004
0.7248,-0.0069,-0.0136
0.7468,-0.0074,-0.0327
0.7639,0.0038,-0.0493
0.7937,0.0068,-0.0581
0.8103,0.0097,-0.0673
0.8303,0.0117,-0.0786
0.8548,0.0112,-0.0888
0.8797,0.0161,-0.101
0.9046,0.018,-0.1143
0.9281,0.0219,-0.1221
0.9565,0.0234,-0.1294
0.9858,0.0253,-0.1406
1.0053,0.0239,-0.1465
1.0346,0.0253,-0.1465
1.061,0.0195,-0.1494
1.0806,0.017,-0.1548
1.103,0.0165,-0.1582
1.1255,0.019,-0.1553
1.1465,0.017,-0.1524
1.1719,0.0151,-0.1436
1.1866,0.0082,-0.1367
1.2032,0.019,-0.1318
1.2305,0.0209,-0.1172
1.2579,0.0102,-0.1049
1.275,0.0009,-0.0971
1.2902,-0.003,-0.0922
1.3068,-0.0049,-0.082
1.3195,-0.0059,-0.0766
1.3336,-0.0108,-0.0698
1.3458,-0.0152,-0.0644
1.3507,-0.0132,-0.0605
1.36,-0.0128,-0.0556
1.3673,-0.0191,-0.0497
1.3811,-0.0245,-0.039
1.3806,-0.0264,-0.0371
1.384,-0.0318,-0.0336
1.3879,-0.0367,-0.0258
1.3899,-0.0474,-0.0234
1.3967,-0.0573,-0.0209
1.3977,-0.0641,-0.0156
1.3957,-0.0704,-0.0141
1.3972,-0.0743,-0.0107
1.3889,-0.0846,-0.0092
1.382,-0.0817,-0.0058
1.3776,-0.0831,-0.0043
1.379,-0.0856,0.0001
1.384,-0.0827,0.0001
1.3771,-0.089,0.0094
1.3776,-0.0861,0.0118
1.3722,-0.0914,0.0074
1.36,-0.09,0.0074
1.3419,-0.0934,0.0055
1.3248,-0.0953,0.0001
1.3097,-0.0949,-0.0048
1.2936,-0.0934,-0.0087
1.2711,-0.091,-0.0117
1.2462,-0.0856,-0.0224
1.2281,-0.0831,-0.02
1.2095,-0.0792,-0.0209
1.1895,-0.0695,-0.0273
1.171,-0.0636,-0.0317
1.1543,-0.0499,-0.04
1.1396,-0.0338,-0.0493
1.126,-0.0201,-0.0624
1.1113,-0.0069,-0.0771
1.0996,-0.0093,-0.1
1.084,-0.0181,-0.1172
1.0703,-0.0235,-0.1382
1.0478,-0.0342,-0.1572
1.0268,-0.0377,-0.1787
1.0063,-0.0425,-0.1939
0.9858,-0.0401,-0.2051
0.9696,-0.044,-0.2149
0.9599,-0.0489,-0.2242
0.9496,-0.0528,-0.2354
0.9525,-0.0729,-0.2476
0.9652,-0.0963,-0.2672
0.9779,-0.1339,-0.2911
0.9916,-0.1711,-0.3126
1.0112,-0.2058,-0.338
1.0258,-0.2478,-0.3639
1.0395,-0.2874,-0.3879
1.0468,-0.3211,-0.4113
1.059,-0.3406,-0.4255
1.0806,-0.3553,-0.4265
1.1059,-0.367,-0.423
1.1431,-0.3621,-0.4084
1.2017,-0.3489,-0.3786
1.2711,-0.3406,-0.3498
1.3375,-0.3162,-0.3254
1.3977,-0.282,-0.3038
1.4548,-0.2395,-0.294
1.5032,-0.1931,-0.2901
1.5442,-0.1515,-0.294
1.5769,-0.1149,-0.3043
1.6156,-0.0719,-0.3121
1.6463,-0.0313,-0.3258
1.6683,0.017,-0.3439
1.681,0.0693,-0.36
1.6977,0.1255,-0.3815
1.7026,0.1685,-0.3898
1.7045,0.2232,-0.4069
1.6996,0.2692,-0.4284
1.6869,0.3122,-0.4524
1.6483,0.3512,-0.4866
1.5413,0.3029,-0.5848
1.5374,0.2995,-0.6024
1.5301,0.3341,-0.5887
1.4973,0.3752,-0.6111
1.4519,0.4138,-0.6292
1.4138,0.4397,-0.6444
1.3688,0.4558,-0.6527
1.3253,0.4636,-0.6566
1.2814,0.4607,-0.6596
1.2242,0.4617,-0.66
1.1533,0.4661,-0.661
1.0835,0.4641,-0.6571
1.0087,0.4563,-0.6498
0.9515,0.4338,-0.6297
0.9012,0.4123,-0.6033
0.8524,0.3982,-0.5799
0.8079,0.3796,-0.5472
0.7727,0.3659,-0.5085
0.739,0.3463,-0.4675
0.7087,0.3302,-0.4235
0.6833,0.3161,-0.38
0.6628,0.297,-0.3341
0.6491,0.2804,-0.2872
0.6359,0.2603,-0.2364
0.6315,0.2403,-0.1861
0.6295,0.2218,-0.1338
0.6324,0.2013,-0.0854
0.6389,0.1798,-0.0444
0.6476,0.1548,-0.0082
0.655,0.1333,0.0211
0.6623,0.1099,0.049
0.6706,0.0899,0.0753
0.6789,0.0659,0.0905
0.6804,0.0385,0.1071
0.6745,0.019,0.1174
0.6667,-0.004,0.1135
0.6516,-0.0074,0.1032
0.6476,-0.0025,0.0827
0.6433,-0.0025,0.0626
0.6472,0.0009,0.0455
0.656,0.0019,0.0289
0.6638,0.0102,0.0123
0.6799,0.0146,-0.0019
0.7106,0.0195,-0.0126
0.78,0.0322,-0.0146
0.8568,0.0664,0.004
0.844,0.0468,-0.0258
0.8391,0.0405,-0.0454
0.8343,0.0557,-0.0595
0.8509,0.0586,-0.0742
0.8744,0.061,-0.0844
0.9012,0.0654,-0.0937
0.9183,0.0732,-0.0961
0.9427,0.0732,-0.103
0.9652,0.0723,-0.1005
0.9926,0.0767,-0.0981
1.0219,0.0825,-0.0971
1.0497,0.0845,-0.0952
1.0698,0.0855,-0.0986
1.0864,0.0923,-0.1025
1.1011,0.0923,-0.1089
1.1211,0.1001,-0.1035
1.1362,0.1069,-0.0996
1.1489,0.1109,-0.104
1.1645,0.1143,-0.1094
1.1695,0.1162,-0.1138
1.1768,0.1206,-0.1187
1.1817,0.1255,-0.127
1.188,0.1206,-0.1314
1.1964,0.1182,-0.1323
1.1983,0.1177,-0.1328
1.2051,0.1177,-0.1348
1.2056,0.1167,-0.1343
1.2056,0.1182,-0.1436
1.2007,0.1172,-0.1489
1.1929,0.1118,-0.1514
1.1851,0.1079,-0.1553
1.1719,0.1089,-0.1597
1.1582,0.1099,-0.1568
1.1426,0.1074,-0.1524
1.126,0.1172,-0.1528
1.1099,0.1231,-0.1475
1.0923,0.1221,-0.145
1.0727,0.1275,-0.1397
1.0546,0.1289,-0.126
1.0287,0.1372,-0.1177
1.0151,0.1392,-0.1128
0.9965,0.1426,-0.1104
0.977,0.1504,-0.1
0.9594,0.1543,-0.0903
0.9403,0.1563,-0.0834
0.9251,0.1593,-0.0776
0.9129,0.1715,-0.0751
0.891,0.1734,-0.0693
0.8719,0.1783,-0.0605
0.8548,0.1807,-0.0595
0.8396,0.1788,-0.0639
0.8216,0.1773,-0.0644
0.8054,0.1739,-0.061
0.7898,0.1754,-0.0605
0.7732,0.1695,-0.0639
0.7571,0.1651,-0.0659
0.7473,0.1637,-0.0693
0.7302,0.1627,-0.0722
0.7102,0.1558,-0.0771
0.694,0.1519,-0.0805
0.6779,0.1436,-0.0874
0.6643,0.1402,-0.0922
0.6516,0.1358,-0.0996
0.6349,0.125,-0.103
0.6207,0.1201,-0.1049
0.6105,0.1162,-0.1104
0.5973,0.1148,-0.1113
0.5919,0.1025,-0.1109
0.5836,0.0952,-0.1089
0.5787,0.0899,-0.1084
0.5782,0.0869,-0.1044
0.566,0.0791,-0.0966
0.5592,0.0781,-0.0869
0.5602,0.0713,-0.0795
0.5597,0.0689,-0.0732
0.5616,0.0679,-0.0654
0.5572,0.0625,-0.0556
0.5587,0.0591,-0.0434
0.5582,0.062,-0.0322
0.5529,0.062,-0.0175
0.5592,0.0601,-0.0087
0.5612,0.0606,-0.0009
0.5607,0.0586,0.0074
0.568,0.0571,0.0118
0.5734,0.0512,0.0138
0.5817,0.0522,0.0197
0.5856,0.0502,0.0167
0.5929,0.0439,0.0143
0.6022,0.041,0.0114
0.6202,0.0385,0.0026
0.6398,0.0346,-0.0014
0.655,0.0346,-0.0048
0.6765,0.0322,-0.0156
0.6984,0.0322,-0.0263
0.7224,0.038,-0.0327
0.7478,0.0351,-0.0444
0.7678,0.038,-0.06
0.7859,0.04,-0.0707
0.8054,0.0395,-0.0825
0.825,0.0429,-0.0947
0.8411,0.0444,-0.1099
0.8543,0.0449,-0.1235
0.8724,0.0458,-0.1338
0.8875,0.0473,-0.145
0.9017,0.0562,-0.1533
0.9129,0.0557,-0.1641
0.9237,0.0645,-0.166
0.9393,0.0732,-0.1655
0.9476,0.0796,-0.1714
0.9579,0.0864,-0.1699
0.9667,0.0933,-0.1695
0.975,0.1035,-0.168
0.9853,0.106,-0.1611
0.9975,0.1113,-0.1558
1.0082,0.1196,-0.1533
1.0116,0.1289,-0.147
1.0204,0.1323,-0.1421
1.0287,0.1382,-0.1314
1.0317,0.1416,-0.1314
1.0361,0.1499,-0.1279
1.0405,0.1538,-0.1196
1.0414,0.1632,-0.1192
1.0361,0.1715,-0.1148
1.0405,0.1759,-0.1089
1.0326,0.1812,-0.101
1.0302,0.1925,-0.0942
1.0238,0.2017,-0.0917
1.0185,0.2022,-0.0859
1.0126,0.2115,-0.079
1.0048,0.2193,-0.0683
0.998,0.2266,-0.061
0.9906,0.231,-0.0551
0.9833,0.2379,-0.0478
0.9696,0.2408,-0.0327
0.9643,0.2476,-0.0156
0.9565,0.2501,-0.0029
0.9496,0.252,0.006
0.9486,0.2579,0.0182
0.9466,0.2594,0.0314
0.9471,0.2613,0.0431
0.9505,0.2638,0.0548
0.956,0.2603,0.067
0.9613,0.2628,0.0778
0.9657,0.2599,0.0944
0.9779,0.2633,0.0983
0.9931,0.2672,0.1041
0.9975,0.2682,0.1105
1.0097,0.2711,0.1149
1.0268,0.2707,0.1145
1.0395,0.2692,0.1184
1.0531,0.2697,0.1188
1.0747,0.2687,0.1169
1.0933,0.2707,0.111
1.1064,0.2736,0.1086
1.1309,0.2707,0.0983
1.1528,0.2687,0.09
1.1763,0.2716,0.0768
1.2007,0.2726,0.067
1.2217,0.2692,0.0577
1.251,0.2726,0.0436
1.2794,0.2721,0.0343
1.3068,0.2731,0.0187
1.3327,0.2726,0.0114
1.3571,0.2707,0.0016
1.3884,0.2819,-0.0126
1.4172,0.2863,-0.0112
1.4406,0.2731,-0.019
1.4626,0.2741,-0.0292
1.4802,0.2721,-0.0537
1.5056,0.2486,-0.0668
1.5193,0.2193,-0.103
1.5052,0.1959,-0.1607
1.4714,0.1895,-0.2144
1.4465,0.1993,-0.2623
1.4138,0.213,-0.3033
1.3889,0.2169,-0.3293
1.3698,0.2335,-0.3312
1.362,0.2535,-0.3082
1.3546,0.2663,-0.2706
1.3585,0.2785,-0.2359
1.359,0.2956,-0.2056
1.3517,0.32,-0.1944
1.3356,0.3473,-0.2022
1.3161,0.3845,-0.2237
1.2902,0.4319,-0.2589
1.2662,0.4847,-0.2984
1.2452,0.5257,-0.3429
1.2257,0.5726,-0.3937
1.2213,0.6117,-0.4333
1.2305,0.6342,-0.4626
1.2628,0.6415,-0.4866
1.3121,0.6351,-0.5027
1.3722,0.618,-0.5115
1.4362,0.5892,-0.5222
1.5017,0.554,-0.5457
1.5559,0.5169,-0.5775
1.5525,0.4402,-0.6365
1.5647,0.4031,-0.681
1.6136,0.4006,-0.7147
1.6551,0.3605,-0.7631
1.681,0.3405,-0.7866
1.7035,0.3127,-0.8003
1.7026,0.2687,-0.8296
1.6634,0.2183,-0.8516
1.5906,0.1754,-0.8633
1.5139,0.1392,-0.8687
1.4289,0.1113,-0.8638
1.3488,0.0869,-0.8516
1.2853,0.0625,-0.8242
1.2276,0.0395,-0.7915
1.1739,0.0156,-0.7558
1.1269,-0.0108,-0.7152
1.0791,-0.0377,-0.6762
1.0268,-0.0621,-0.6365
0.9711,-0.0812,-0.5916
0.9212,-0.1022,-0.5457
0.8719,-0.1232,-0.5032
0.8172,-0.1393,-0.4543
0.7722,-0.1491,-0.4093
0.7419,-0.1525,-0.3561
0.7532,-0.13,-0.2896
0.7248,-0.1618,-0.2423
0.6857,-0.1882,-0.1929
0.6506,-0.1809,-0.1338
0.6217,-0.1711,-0.0795
0.5963,-0.175,-0.0473
0.5719,-0.175,-0.0146
0.5499,-0.1799,0.0182
0.5323,-0.1887,0.0416
0.5118,-0.1877,0.0724
0.4937,-0.195,0.0934
0.4795,-0.1984,0.1154
0.4698,-0.1955,0.1359
0.461,-0.1916,0.1506
0.4756,-0.1599,0.1716
0.525,-0.1163,0.1955
0.5704,-0.091,0.2043
0.6124,-0.0763,0.2117
0.6501,-0.0582,0.2151
0.6721,-0.0396,0.2102
0.6945,-0.0186,0.2009
0.716,0.0048,0.1936
0.7439,0.0341,0.1804
0.7625,0.0517,0.1652
0.78,0.0762,0.1467
0.7947,0.1006,0.1301
0.8118,0.1211,0.1066
0.8338,0.1421,0.0827
0.8484,0.1627,0.0553
0.87,0.1832,0.0304
0.8885,0.1934,0.0089
0.9051,0.1993,-0.0151
0.9261,0.21,-0.0458
0.9476,0.2115,-0.0673
0.9682,0.2105,-0.0908
0.9858,0.2027,-0.1172
0.9999,0.1905,-0.146
1.0043,0.1729,-0.1743
0.9955,0.1528,-0.1992
0.9765,0.1382,-0.2149
0.9638,0.1275,-0.2315
0.9505,0.1167,-0.2437
0.9437,0.1069,-0.2511
0.9432,0.1001,-0.254
0.9486,0.0962,-0.2569
0.952,0.0933,-0.2535
0.9609,0.0933,-0.2481
0.9701,0.0933,-0.2423
0.9833,0.0923,-0.2393
0.997,0.0928,-0.2335
1.0058,0.0986,-0.2237
1.0209,0.106,-0.2119
1.0341,0.1079,-0.2012
1.0453,0.1133,-0.1904
1.0595,0.1231,-0.1748
1.0698,0.1318,-0.1641
1.0815,0.1402,-0.1524
1.0903,0.146,-0.1421
1.0942,0.1602,-0.1323
1.1016,0.1685,-0.126
1.103,0.1778,-0.1235
1.102,0.189,-0.1226
1.104,0.2037,-0.1152
1.1006,0.2125,-0.1235
1.0986,0.2198,-0.1294
1.0957,0.2291,-0.1304
1.0849,0.2369,-0.1431
1.0801,0.2403,-0.146
1.0703,0.2481,-0.1592
1.0595,0.2481,-0.1704
1.0536,0.2496,-0.1807
1.0419,0.2452,-0.1973
1.0248,0.2432,-0.209
1.0136,0.2413,-0.2193
0.998,0.2359,-0.2306
0.9823,0.2242,-0.2462
0.9613,0.2154,-0.2535
0.9432,0.212,-0.2564
0.9295,0.2037,-0.2657
0.9164,0.1978,-0.2677
0.9007,0.1925,-0.2691
0.8871,0.1876,-0.2638
0.8773,0.1861,-0.252
0.8621,0.1817,-0.2418
0.849,0.1754,-0.2349
0.8367,0.1739,-0.2208
0.8245,0.17,-0.2031
0.8118,0.1671,-0.19
0.7991,0.1661,-0.1734
0.7805,0.1661,-0.1528
0.7669,0.1661,-0.1406
0.7493,0.1676,-0.1226
0.7307,0.1651,-0.1035
0.7175,0.1612,-0.0922
0.6994,0.1656,-0.0747
0.6823,0.1627,-0.0649
0.6657,0.1646,-0.0537
0.6511,0.1661,-0.0444
0.6384,0.1666,-0.0366
0.6281,0.1685,-0.0292
0.6188,0.1695,-0.0209
0.6115,0.17,-0.0165
0.6032,0.1651,-0.0141
0.6012,0.1661,-0.0107
0.6051,0.1676,-0.0126
0.6061,0.1676,-0.019
0.61,0.1715,-0.02
0.6149,0.17,-0.0258
0.6202,0.1744,-0.0375
0.63,0.1749,-0.0537
0.6379,0.1734,-0.0654
0.6496,0.1763,-0.0751
0.6594,0.1759,-0.0947
0.6647,0.1744,-0.1109
0.674,0.1754,-0.125
0.6794,0.172,-0.1392
0.6809,0.1685,-0.1504
0.6901,0.169,-0.1607
0.695,0.1705,-0.168
0.6994,0.168,-0.1782
0.7092,0.1734,-0.1758
0.7155,0.1759,-0.1782
0.7297,0.1744,-0.1826
0.7409,0.1778,-0.1821
0.7551,0.1739,-0.1875
0.7698,0.1695,-0.1831
0.7874,0.1734,-0.1865
0.8045,0.1729,-0.1778
0.823,0.1729,-0.1729
0.8421,0.1739,-0.169
0.8573,0.1744,-0.1582
0.8817,0.1724,-0.1548
0.8963,0.171,-0.1489
0.9193,0.1734,-0.1387
0.9388,0.1715,-0.1318
0.9648,0.1685,-0.125
0.9833,0.1671,-0.1221
0.9985,0.1685,-0.1148
1.0136,0.1676,-0.1118
1.0282,0.1637,-0.1109
1.0458,0.1651,-0.1064
1.0615,0.1661,-0.1044
1.0776,0.1627,-0.1054
1.0854,0.1612,-0.1054
1.0981,0.1587,-0.1064
1.1059,0.1617,-0.1069
1.1152,0.1632,-0.1054
1.1255,0.1622,-0.1099
1.1313,0.1593,-0.1123
1.1426,0.1593,-0.1113
1.1562,0.1548,-0.1059
1.1606,0.1548,-0.103
1.1719,0.1475,-0.1015
1.1851,0.1406,-0.0932
1.2017,0.1353,-0.0859
1.2227,0.1211,-0.079
1.232,0.1123,-0.0639
1.2393,0.1001,-0.062
1.2442,0.084,-0.0595
1.2506,0.0635,-0.0502
1.2574,0.0463,-0.0444
1.2589,0.0288,-0.0395
1.2657,0.0097,-0.0278
1.2706,-0.0098,-0.0214
1.275,-0.0255,-0.0131
1.2848,-0.0396,-0.0004
1.3014,-0.0617,0.0133
1.3112,-0.0797,0.025
1.3209,-0.0914,0.0382
1.3371,-0.1061,0.0524
1.3434,-0.1203,0.0695
1.3434,-0.1349,0.0812
1.36,-0.1496,0.0953
1.3664,-0.1599,0.1096
1.3727,-0.1696,0.1208
1.3737,-0.1814,0.1262
1.3717,-0.1867,0.1389
1.3683,-0.1931,0.1516
1.3678,-0.1906,0.1574
1.3634,-0.1887,0.1667
1.36,-0.1804,0.1696
1.3585,-0.1726,0.1877
1.3541,-0.1623,0.196
1.3502,-0.153,0.2033
1.3493,-0.1364,0.218
1.3419,-0.1246,0.2298
1.3287,-0.1134,0.2425
1.3146,-0.1076,0.2527
1.2955,-0.1022,0.2649
1.2711,-0.0895,0.2776
1.2383,-0.0836,0.2898
1.2061,-0.0763,0.2937
1.1778,-0.0778,0.304
1.146,-0.0797,0.3157
1.1138,-0.0768,0.3231
1.0849,-0.0802,0.3343
1.0595,-0.0831,0.3446
1.039,-0.0866,0.3568
1.0155,-0.0983,0.3705
1.0024,-0.1061,0.3832
0.9911,-0.1149,0.389
0.9862,-0.1242,0.4027
0.9735,-0.1305,0.4095
0.9677,-0.1344,0.4066
0.9667,-0.1369,0.4081
0.9701,-0.1383,0.4012
0.976,-0.1369,0.389
0.9862,-0.1383,0.3793
0.9941,-0.1378,0.3558
1.0024,-0.1344,0.3324
1.0112,-0.1315,0.305
1.0155,-0.1222,0.2683
1.0126,-0.1198,0.2254
1.0063,-0.1178,0.1814
0.9945,-0.1149,0.134
0.9784,-0.1246,0.0817
0.9589,-0.1325,0.0328
0.9325,-0.1388,-0.0131
0.9168,-0.1437,-0.0581
0.9041,-0.1486,-0.1064
0.89,-0.1525,-0.1651
0.8739,-0.1559,-0.2164
0.8675,-0.1638,-0.2682
0.8621,-0.1696,-0.317
0.8592,-0.177,-0.3581
0.8617,-0.1931,-0.3908
0.8646,-0.2082,-0.4118
0.8714,-0.2072,-0.427
0.8768,-0.2234,-0.4377
0.9037,-0.2185,-0.4392
0.9491,-0.177,-0.4176
1.0107,-0.1329,-0.3805
1.064,-0.0778,-0.3395
1.1118,-0.0162,-0.2955
1.1592,0.0542,-0.252
1.2183,0.1255,-0.2114
1.2711,0.2013,-0.1709
1.3268,0.276,-0.1318
1.3874,0.342,-0.1015
1.4348,0.405,-0.0854
1.4812,0.4641,-0.0854
1.5144,0.5291,-0.0903
1.5403,0.5887,-0.0961
1.5569,0.6405,-0.1231
1.533,0.6298,-0.1865
1.4665,0.5135,-0.2989
1.4646,0.5594,-0.2989
1.4519,0.622,-0.3102
1.4182,0.6635,-0.3459
1.3908,0.6992,-0.3786
1.3664,0.7285,-0.404
1.3449,0.7573,-0.426
1.3302,0.7797,-0.4431
1.299,0.8018,-0.467
1.2618,0.8247,-0.491
1.2164,0.8428,-0.5071
1.166,0.8491,-0.5188
1.1172,0.8482,-0.5256
1.0766,0.8389,-0.535
1.0253,0.8272,-0.529
0.9765,0.7944,-0.5198
0.9271,0.7568,-0.4978
0.8851,0.708,-0.4836
0.8607,0.6444,-0.4563
0.8323,0.5902,-0.4152
0.8035,0.5389,-0.3678
0.7757,0.4974,-0.3185
0.7512,0.4558,-0.2745
0.7355,0.4201,-0.2281
0.7155,0.3874,-0.1841
0.6916,0.3571,-0.1436
0.6701,0.3346,-0.1104
0.6506,0.318,-0.0839
0.631,0.2951,-0.0507
0.6134,0.279,-0.0239
0.6217,0.2702,0.0177
0.6667,0.2887,0.0758
0.6467,0.2707,0.0929
0.6305,0.2476,0.1081
0.6256,0.2169,0.1315
0.6256,0.1832,0.1525
0.6246,0.1538,0.1608
0.6271,0.1328,0.1633
0.6256,0.1157,0.1618
0.6158,0.1001,0.1608
0.6066,0.085,0.156
0.6022,0.0752,0.1477
0.5978,0.0649,0.1423
0.5914,0.0537,0.1315
0.5709,0.0693,0.1232
0.5612,0.1109,0.1154
0.5739,0.1441,0.1091
0.6051,0.1739,0.1076
0.6501,0.2042,0.1096
0.7126,0.2423,0.1086
0.7805,0.278,0.1012
0.8396,0.3068,0.0895
0.8939,0.3288,0.0709
0.9447,0.3547,0.049
0.9858,0.3786,0.0192
1.0199,0.3908,-0.0107
1.0536,0.4031,-0.0414
1.0854,0.4104,-0.0786
1.1113,0.4187,-0.1162
1.1382,0.4231,-0.1592
1.1645,0.4226,-0.2022
1.189,0.4245,-0.2374
1.2105,0.4206,-0.2682
1.2344,0.4206,-0.2965
1.2584,0.4197,-0.3136
1.2785,0.405,-0.3293
1.296,0.3996,-0.3429
1.3156,0.3928,-0.3473
1.3302,0.3869,-0.3459
1.3395,0.3791,-0.338
1.3434,0.3708,-0.3346
1.3458,0.3581,-0.3249
1.3449,0.3527,-0.3067
1.3395,0.3503,-0.2872
1.3317,0.3527,-0.2711
1.3146,0.3493,-0.2545
1.298,0.3459,-0.2428
1.2804,0.3483,-0.2223
1.252,0.3551,-0.2119
1.2266,0.3581,-0.2051
1.2012,0.3644,-0.1988
1.1793,0.3728,-0.1988
1.1523,0.384,-0.1958
1.1299,0.3948,-0.1958
1.1108,0.4055,-0.2022
1.0942,0.4148,-0.208
1.0791,0.4319,-0.2095
1.0693,0.4509,-0.2154
1.064,0.4621,-0.2203
1.0556,0.4739,-0.2296
1.0414,0.4861,-0.2384
1.0268,0.4939,-0.2476
1.0087,0.4979,-0.2569
0.9921,0.5066,-0.2711
0.9735,0.512,-0.2818
0.95,0.5164,-0.2896
0.932,0.5198,-0.3018
0.9115,0.5232,-0.3102
0.8944,0.5242,-0.3155
0.8861,0.5232,-0.3126
0.867,0.5252,-0.3175
0.8563,0.5232,-0.3111
0.849,0.5223,-0.3053
0.8411,0.5184,-0.2994
0.8347,0.5184,-0.2926
0.823,0.5149,-0.2774
0.8157,0.5164,-0.2545
0.8045,0.5115,-0.2398
0.7957,0.5071,-0.2124
0.7844,0.5022,-0.1817
0.7796,0.4993,-0.1548
0.7674,0.4988,-0.1235
0.759,0.4964,-0.0966
0.7473,0.4964,-0.0673
0.7302,0.4964,-0.0488
0.716,0.4915,-0.0302
0.7087,0.4915,-0.0107
0.6975,0.4905,0.005
0.6926,0.4881,0.0148
0.6892,0.4852,0.0148
0.6867,0.4744,0.0162
0.6838,0.4612,0.0138
0.6677,0.4587,0.004
0.6667,0.4529,-0.0009
0.6745,0.4392,-0.0112
0.6838,0.4284,-0.0214
0.696,0.4167,-0.0366
0.7097,0.3982,-0.0478
0.7204,0.3796,-0.0624
0.7409,0.3649,-0.081
0.7493,0.3488,-0.101
0.7586,0.3317,-0.1245
0.7664,0.3141,-0.1587
0.7713,0.3009,-0.1817
0.7835,0.2794,-0.2095
0.7942,0.2603,-0.234
0.803,0.2442,-0.2525
0.8133,0.2306,-0.2706
0.8357,0.2115,-0.2848
0.8538,0.1861,-0.294
0.8709,0.1671,-0.296
0.8949,0.1499,-0.2989
0.9159,0.1353,-0.2911
0.9276,0.124,-0.2867
0.9442,0.1099,-0.276
0.9613,0.1025,-0.2589
0.9784,0.0972,-0.2403
0.9862,0.0835,-0.2232
0.9887,0.0762,-0.2095
0.9975,0.0693,-0.1875
0.996,0.0654,-0.166
0.9892,0.0674,-0.1402
0.9921,0.0728,-0.1113
0.9941,0.0625,-0.0839
0.9814,0.0581,-0.0649
0.9667,0.0635,-0.0497
0.9505,0.0742,-0.0258
0.9408,0.0781,-0.0058
0.9237,0.0859,0.0177
0.9115,0.0938,0.0426
0.8968,0.1011,0.0538
0.8822,0.1157,0.0695
0.8719,0.1255,0.0836
0.8626,0.1358,0.091
0.8519,0.1533,0.0934
0.845,0.1632,0.0924
0.8352,0.1739,0.09
0.8255,0.189,0.0753
0.8142,0.2017,0.0607
0.805,0.212,0.0416
0.7976,0.2257,0.0197
0.7927,0.2364,-0.0029
0.7874,0.2496,-0.0292
0.7849,0.2599,-0.0541
0.7888,0.2658,-0.0815
0.7898,0.279,-0.1094
0.7923,0.2907,-0.1372
0.8006,0.2975,-0.1592
0.8113,0.3073,-0.1861
0.8196,0.3122,-0.2085
0.8313,0.3166,-0.2281
0.8484,0.3175,-0.2423
0.8587,0.3151,-0.2516
0.8656,0.3112,-0.2599
0.8768,0.3053,-0.2682
0.8841,0.297,-0.2716
0.8983,0.2882,-0.2696
0.9037,0.2809,-0.2657
0.9085,0.2668,-0.2638
0.9173,0.2603,-0.2584
0.9217,0.2486,-0.2481
0.9251,0.2379,-0.2364
0.9193,0.2301,-0.2247
0.9154,0.2208,-0.211
0.9071,0.2047,-0.1948
0.8998,0.1934,-0.1768
0.8831,0.1842,-0.1626
0.868,0.1783,-0.1416
0.8509,0.1695,-0.124
0.8284,0.1577,-0.1059
0.8064,0.1494,-0.0849
0.7908,0.1455,-0.0659
0.7752,0.1431,-0.0537
0.7483,0.1362,-0.0356
0.7326,0.1343,-0.0156
0.7136,0.1333,-0.0004
0.7053,0.1289,0.0138
0.6926,0.1206,0.0265
0.6877,0.1162,0.0426
0.6774,0.1089,0.0573
0.6794,0.1089,0.0758
0.6848,0.1065,0.0934
0.6901,0.1006,0.0997
0.7067,0.0889,0.1169
0.7258,0.082,0.1306
0.7483,0.0776,0.1472
0.7708,0.0737,0.1569
0.7996,0.0728,0.1623
0.8308,0.0703,0.1691
0.8578,0.0693,0.1755
0.8817,0.0664,0.174
0.909,0.0645,0.1731
0.9305,0.0698,0.1682
0.9457,0.0698,0.1599
0.9638,0.0723,0.154
0.9862,0.0693,0.1379
1.0038,0.0689,0.1179
1.019,0.0684,0.0988
1.0297,0.0698,0.0787
1.0439,0.0698,0.0592
1.0585,0.0654,0.0426
1.0713,0.0669,0.0197
1.0825,0.0645,-0.0009
1.0889,0.0635,-0.0224
1.0976,0.0649,-0.0414
1.1001,0.0645,-0.0576
1.0976,0.0693,-0.0781
1.0991,0.0669,-0.0971
1.0937,0.0698,-0.1157
1.0835,0.0742,-0.1343
1.0723,0.0752,-0.1421
1.0635,0.082,-0.1543
1.0497,0.0859,-0.1543
1.0361,0.0908,-0.1489
1.0346,0.0923,-0.1358
1.0263,0.0938,-0.1265
1.0199,0.0967,-0.1084
1.0165,0.0962,-0.0854
1.0102,0.1001,-0.0581
1.0063,0.1016,-0.0375
1.0048,0.105,-0.0097
0.9926,0.105,0.0177
0.9862,0.1123,0.049
0.9775,0.1157,0.0827
0.9701,0.1187,0.1159
0.9643,0.1216,0.1506
0.954,0.1294,0.1779
0.9437,0.1343,0.2082
0.9398,0.1406,0.2361
0.9349,0.1465,0.2659
0.9354,0.147,0.2913
0.9339,0.1524,0.3167
0.9334,0.1572,0.3363
0.9383,0.1582,0.3514
0.9364,0.1572,0.3583
0.9334,0.1587,0.368
0.9354,0.1617,0.3656
0.9383,0.1666,0.3612
0.9364,0.172,0.3583
0.9398,0.1744,0.35
0.9471,0.1763,0.3436
0.9417,0.1734,0.3241
0.9466,0.1812,0.3123
0.951,0.1861,0.2913
0.951,0.19,0.2688
0.9491,0.1851,0.2532
0.9579,0.191,0.2376
0.9706,0.1934,0.2234
0.975,0.1939,0.2077
0.9872,0.2008,0.1989
0.995,0.1983,0.1862
1.0024,0.1969,0.1765
1.0097,0.1978,0.1721
1.0238,0.1944,0.1687
1.0361,0.1886,0.1643
1.0473,0.1798,0.1687
1.058,0.1715,0.1721
1.0605,0.1646,0.1765
1.0752,0.1563,0.1857
1.0869,0.1509,0.1975
1.104,0.1382,0.2053
1.1103,0.1284,0.2122
1.1167,0.1152,0.2132
1.1167,0.1025,0.219
1.1152,0.0884,0.2254
1.1172,0.0752,0.2327
1.1172,0.0625,0.2366
1.1118,0.0512,0.2381
1.1108,0.0361,0.2464
1.1089,0.0248,0.2522
1.1099,0.0151,0.2595
1.1157,0.0019,0.2659
1.124,-0.0128,0.2708
1.1294,-0.0206,0.2766
1.1377,-0.0377,0.284
1.1431,-0.0504,0.2879
1.1504,-0.0582,0.2957
1.1567,-0.0631,0.3059
1.1509,-0.0474,0.3138
1.1846,-0.0279,0.3416
1.2271,-0.0885,0.3631
1.2271,-0.0905,0.3641
1.2237,-0.0856,0.3675
1.233,-0.0812,0.3714
1.2359,-0.0812,0.3709
1.2452,-0.0792,0.3773
1.2623,-0.0807,0.3832
1.2736,-0.0817,0.3856
1.2872,-0.0817,0.3871
1.2999,-0.0831,0.3822
1.3141,-0.0846,0.3744
1.3278,-0.0836,0.368
1.341,-0.0783,0.3553
1.3537,-0.0763,0.3485
1.3576,-0.0729,0.3333
1.358,-0.0719,0.3226
1.36,-0.0646,0.302
1.3546,-0.0621,0.2805
1.3473,-0.0563,0.2552
1.3336,-0.0435,0.2371
1.3219,-0.0318,0.2161
1.3063,-0.0191,0.1877
1.2907,-0.0035,0.1691
1.275,0.0073,0.154
1.2569,0.0195,0.1345
1.2349,0.0361,0.1208
1.2154,0.0512,0.111
1.1837,0.0659,0.1052
1.1504,0.083,0.0978
1.1157,0.0996,0.0968
1.0815,0.1143,0.0934
1.0395,0.1299,0.091
0.9892,0.1436,0.0875
0.9339,0.1637,0.0953
0.8739,0.1871,0.1012
0.8108,0.2105,0.1096
0.7512,0.2369,0.1267
0.696,0.2682,0.1345
0.6462,0.3073,0.1506
0.5968,0.3395,0.1623
0.5577,0.3777,0.1784
0.5215,0.4148,0.1862
0.501,0.4519,0.196
0.4883,0.4954,0.2009
0.4893,0.532,0.1975
0.5059,0.5716,0.1926
0.5362,0.5956,0.1682
0.5499,0.6469,0.1413
0.5968,0.6914,0.1188
0.6423,0.7226,0.0953
0.6843,0.7543,0.0651
0.7399,0.7944,0.0314
0.8103,0.8296,-0.0004
0.8885,0.8521,-0.0346
0.9775,0.8633,-0.0747
1.0698,0.8726,-0.1255
1.167,0.8633,-0.1821
1.2462,0.812,-0.2476
1.2975,0.7895,-0.3023
1.3874,0.8008,-0.3561
1.4876,0.7636,-0.4176
1.5848,0.7231,-0.468
1.6722,0.6762,-0.5124
1.7621,0.6268,-0.5525
1.8423,0.5735,-0.5892
1.9092,0.512,-0.6243
1.9351,0.3996,-0.6893
1.9425,0.321,-0.7211
1.9791,0.3024,-0.6879
1.9947,0.2672,-0.6722
2.005,0.233,-0.6752
2.0025,0.1915,-0.6576
1.9776,0.1593,-0.6258
1.9449,0.1333,-0.5867
1.8994,0.1099,-0.5413
1.8052,0.0742,-0.5061
1.7031,0.0424,-0.4665
1.6117,0.017,-0.4084
1.5125,-0.002,-0.3493
1.4133,-0.0137,-0.2872
1.3078,-0.0313,-0.2066
1.2056,-0.0386,-0.1177
1.102,-0.0504,-0.0322
1.0063,-0.0538,0.0504
0.9203,-0.0504,0.1428
0.8372,-0.0479,0.2317
0.76,-0.0406,0.3123
0.6838,-0.0294,0.3827
0.6173,-0.0172,0.4379
0.5631,0.0078,0.4789
0.5123,0.0312,0.5087
0.48,0.0488,0.5258
0.439,0.084,0.5273
0.418,0.1265,0.5185
0.4228,0.169,0.4965
0.4341,0.2105,0.4574
0.441,0.2437,0.4081
0.4478,0.2731,0.349
0.4576,0.3039,0.2923
0.4708,0.3366,0.2312
0.4922,0.3678,0.1716
0.5127,0.4011,0.1101
0.5436,0.428,0.0499
0.5787,0.4558,-0.0034
0.6183,0.4803,-0.0551
0.6599,0.5022,-0.1104
0.6936,0.5159,-0.1695
0.739,0.5306,-0.2262
0.7796,0.5438,-0.2779
0.8201,0.5496,-0.3258
0.8529,0.5535,-0.3708
0.8831,0.5535,-0.4167
0.9032,0.5604,-0.4548
0.9193,0.5599,-0.4905
0.9315,0.5589,-0.5168
0.9374,0.5643,-0.5369
0.9432,0.5682,-0.5442
0.9579,0.5618,-0.5501
0.9609,0.5496,-0.5535
0.9471,0.5496,-0.5457
0.9378,0.5418,-0.5256
0.9403,0.5291,-0.5061
0.9452,0.5252,-0.4856
0.9452,0.5218,-0.4621
0.9403,0.5149,-0.4382
0.9442,0.5076,-0.4093
0.9457,0.5032,-0.3913
0.9525,0.4866,-0.3722
0.9525,0.4714,-0.3493
0.9648,0.4656,-0.3371
0.9721,0.4573,-0.3229
0.9765,0.448,-0.3141
0.9804,0.4451,-0.317
0.9887,0.4372,-0.3214
0.9823,0.4343,-0.3312
0.9779,0.4284,-0.3449
0.9696,0.4206,-0.3644
0.9648,0.4177,-0.3844
0.9599,0.4123,-0.4103
0.954,0.4133,-0.4333
0.9486,0.4138,-0.4597
0.9476,0.4026,-0.4885
0.9525,0.3957,-0.511
0.9579,0.3923,-0.5325
0.9633,0.3869,-0.556
0.9662,0.3806,-0.5677
0.9731,0.3782,-0.5814
0.9833,0.3673,-0.5921
0.9926,0.363,-0.5975
0.9955,0.3576,-0.5999
1.0024,0.3556,-0.5989
1.0014,0.3527,-0.595
1.0058,0.3473,-0.5877
1.0121,0.339,-0.5731
1.0102,0.3293,-0.5604
1.0068,0.3254,-0.5364
1.0024,0.3156,-0.5061
0.9902,0.3034,-0.4704
0.975,0.2912,-0.4343
0.9677,0.279,-0.3986
0.956,0.2672,-0.3566
0.9398,0.2545,-0.3141
0.9476,0.2476,-0.2691
0.9599,0.2242,-0.2135
0.9609,0.1998,-0.1719
0.9633,0.1851,-0.1304
0.9609,0.17,-0.0917
0.9609,0.1519,-0.062
0.9628,0.1377,-0.039
0.9692,0.1235,-0.0175
0.9755,0.1099,0.0035
0.9735,0.0938,0.0118
0.9843,0.0781,0.0192
1.0014,0.0723,0.028
1.037,0.125,0.0573
1.0385,0.103,0.0519
1.0419,0.0596,0.0431
1.0463,0.0239,0.0382
1.0571,-0.0084,0.027
1.0615,-0.0274,0.0084
1.064,-0.0543,-0.0102
1.0693,-0.0729,-0.0346
1.0762,-0.09,-0.0537
1.0898,-0.108,-0.0664
1.0967,-0.1193,-0.0834
1.1089,-0.1305,-0.0981
1.1206,-0.1398,-0.1123
1.1299,-0.1452,-0.1265
1.145,-0.1515,-0.1275
1.1582,-0.1559,-0.1343
1.1705,-0.1569,-0.1382
1.1871,-0.1579,-0.1411
1.191,-0.1588,-0.1436
1.1973,-0.1505,-0.1445
1.1968,-0.1383,-0.1465
1.1837,-0.1134,-0.1485
1.1783,-0.087,-0.146
1.1719,-0.0729,-0.1411
1.1597,-0.0582,-0.1382
1.1426,-0.0445,-0.1416
1.1284,-0.0308,-0.1362
1.1142,-0.0176,-0.1333
1.1074,-0.0064,-0.1211
1.0981,0.0092,-0.1162
1.0884,0.0214,-0.1157
1.0849,0.0297,-0.0996
1.084,0.0375,-0.0883
1.083,0.0414,-0.083
1.083,0.0444,-0.0688
1.0781,0.0463,-0.061
1.0854,0.0439,-0.0537
1.0962,0.0473,-0.0414
1.1016,0.0497,-0.0312
1.1099,0.0537,-0.0258
1.1167,0.0586,-0.019
1.1235,0.061,-0.0146
1.1313,0.0654,-0.0048
1.1362,0.0752,-0.0024
1.1406,0.0811,-0.0029
1.1421,0.0933,-0.0058
1.1455,0.1016,-0.0038
1.1514,0.1094,-0.0082
1.1543,0.1196,-0.0146
1.1548,0.1338,-0.0107
1.1567,0.1489,-0.0121
1.1587,0.1651,-0.0214
1.1641,0.1876,-0.0273
1.1714,0.2056,-0.0263
1.1768,0.2276,-0.0351
1.1734,0.2462,-0.0463
1.1729,0.2663,-0.0478
1.167,0.2838,-0.0512
1.1641,0.3034,-0.0595
1.1558,0.3185,-0.0678
1.1426,0.338,-0.0703
1.1245,0.3483,-0.0751
1.0952,0.3644,-0.081
1.082,0.3855,-0.0898
1.06,0.4031,-0.0883
1.0434,0.4138,-0.0839
1.0204,0.4289,-0.0878
1.0009,0.4436,-0.0859
0.9789,0.4543,-0.0839
0.9584,0.4651,-0.0786
0.9354,0.4714,-0.0756
0.9212,0.4641,-0.0737
0.8846,0.4744,-0.0756
0.8573,0.4944,-0.0668
0.8357,0.5008,-0.059
0.8128,0.5076,-0.0493
0.7903,0.513,-0.0371
0.7654,0.5145,-0.0239
0.7434,0.5154,-0.0087
0.7263,0.5145,-0.0009
0.7072,0.5154,0.0094
0.6901,0.5115,0.0226
0.6809,0.512,0.0319
0.6745,0.5037,0.0436
0.6696,0.493,0.0543
0.6662,0.4788,0.0641
0.6657,0.4626,0.0778
0.6706,0.4436,0.088
0.6765,0.4197,0.0914
0.6818,0.4001,0.1022
0.6955,0.385,0.1125
0.7106,0.361,0.1188
0.7209,0.3395,0.1281
0.7365,0.317,0.1296
0.7503,0.2921,0.132
0.7639,0.2687,0.1389
0.7771,0.2418,0.1359
0.7776,0.2042,0.132
0.7473,0.1563,0.1208
0.7263,0.126,0.1125
0.7136,0.1011,0.1066
0.7058,0.0742,0.1002
0.7077,0.0493,0.0983
0.7219,0.0268,0.1007
0.7321,0.0087,0.1041
0.7532,-0.0089,0.1027
0.7766,-0.0211,0.1091
0.7986,-0.0357,0.111
0.8274,-0.0479,0.1105
0.8612,-0.0553,0.113
0.891,-0.0651,0.1101
0.9227,-0.07,0.1076
0.9525,-0.0719,0.0993
0.9823,-0.0773,0.0949
1.0068,-0.0778,0.0875
1.039,-0.0753,0.0807
1.0698,-0.0773,0.0787
1.0952,-0.0783,0.0719
1.1221,-0.0812,0.0685
1.1499,-0.0763,0.0651
1.1758,-0.0739,0.0587
1.1983,-0.0685,0.0509
1.2203,-0.0534,0.048
1.2452,-0.0626,0.046
1.2593,-0.0582,0.0411
1.2736,-0.046,0.0363
1.2838,-0.0328,0.0324
1.3043,-0.0181,0.0333
1.3141,-0.0025,0.0397
1.3273,0.0146,0.0436
1.3331,0.0312,0.0514
1.34,0.0522,0.0631
1.3478,0.0674,0.0704
1.3546,0.0801,0.0778
1.3595,0.0991,0.0851
1.358,0.1167,0.091
1.3541,0.1309,0.1017
1.3537,0.1465,0.1071
1.3532,0.1637,0.1149
1.3488,0.1803,0.1164
1.3414,0.1925,0.1223
1.3385,0.2086,0.1257
1.3292,0.2218,0.1252
1.3156,0.232,0.1237
1.3034,0.2437,0.1247
1.2941,0.2496,0.1237
1.2843,0.2559,0.1179
1.2741,0.2589,0.1052
1.2637,0.2589,0.0968
1.2515,0.2599,0.0875
1.2418,0.2647,0.0778
1.23,0.2633,0.0592
1.2198,0.2613,0.0431
1.2056,0.2564,0.0299
1.1949,0.2608,0.0138
1.1817,0.2574,-0.0029
1.167,0.2525,-0.0126
1.1543,0.2506,-0.0307
1.1406,0.253,-0.0444
1.1221,0.2511,-0.0507
1.1103,0.2496,-0.059
1.0976,0.2472,-0.0678
1.0835,0.2447,-0.0737
1.0757,0.2476,-0.0786
1.0625,0.2472,-0.0761
1.0575,0.2491,-0.0688
1.0517,0.2442,-0.0634
1.04,0.2535,-0.0576
1.0297,0.2638,-0.0571
1.019,0.2731,-0.0561
0.9994,0.2829,-0.0629
0.9833,0.2926,-0.0786
0.9711,0.279,-0.0937
0.9555,0.2589,-0.1049
0.9466,0.2345,-0.1133
0.9339,0.2047,-0.1211
0.9139,0.1783,-0.1245
0.891,0.1582,-0.1275
0.8621,0.1445,-0.1309
0.8396,0.1328,-0.1372
0.8118,0.1284,-0.1509
0.7835,0.1255,-0.1734
0.759,0.1265,-0.1973
0.7449,0.1148,-0.2242
0.7424,0.082,-0.2594
0.739,0.0288,-0.2921
0.7238,-0.0338,-0.3454
0.737,-0.09,-0.3854
0.7683,-0.1481,-0.4103
0.7952,-0.2116,-0.425
0.8357,-0.217,-0.4142
0.909,-0.0748,-0.3566
0.9432,-0.1061,-0.3649
0.9819,-0.1539,-0.3791
1.0141,-0.1848,-0.3737
1.0434,-0.2116,-0.3913
1.084,-0.2317,-0.4049
1.1367,-0.2473,-0.4181
1.1934,-0.258,-0.4319
1.2608,-0.2683,-0.4387
1.3302,-0.2752,-0.4309
1.4021,-0.2766,-0.4284
1.4724,-0.2522,-0.4265
1.5218,-0.198,-0.4201
1.5476,-0.1466,-0.4225
1.554,-0.0944,-0.4353
1.5408,-0.0479,-0.4509
1.5437,-0.0108,-0.4641
1.5467,0.0263,-0.4714
1.5491,0.063,-0.4744
1.5642,0.0982,-0.47
1.5667,0.1402,-0.4685
1.5618,0.1881,-0.4685
1.5462,0.2447,-0.4661
1.5223,0.3068,-0.4724
1.4758,0.3777,-0.468
1.3962,0.4358,-0.4719
1.3126,0.4387,-0.4841
1.2608,0.3904,-0.4875
1.2115,0.3405,-0.4778
1.147,0.317,-0.4675
1.0766,0.3175,-0.468
1.0024,0.3073,-0.4617
0.9374,0.2975,-0.448
0.8802,0.2853,-0.4324
0.8308,0.2697,-0.4118
0.7864,0.2564,-0.3805
0.7507,0.2423,-0.3547
0.7219,0.2247,-0.3175
0.7038,0.1998,-0.2872
0.6901,0.1861,-0.2559
0.6828,0.1749,-0.2174
0.7048,0.1641,-0.1724
0.7248,0.1548,-0.1309
0.7248,0.1421,-0.101
0.7351,0.1333,-0.0761
0.7434,0.1211,-0.0507
0.7571,0.104,-0.0288
0.7757,0.0859,-0.0117
0.7864,0.0649,0.007
0.8025,0.0473,0.025
0.8245,0.0371,0.0382
0.843,0.0297,0.048
0.8582,0.017,0.0553
0.8724,-0.0001,0.0592
0.888,-0.0225,0.0626
0.9071,-0.0367,0.0597
0.9173,-0.0474,0.045
0.9173,-0.043,0.0265
0.9227,-0.0386,0.0099
0.933,-0.0318,-0.0087
0.9422,-0.0255,-0.0253
0.955,-0.0176,-0.0361
0.9667,-0.0103,-0.0493
0.9853,-0.0045,-0.0541
1.0004,-0.003,-0.0576
1.0224,0.0024,-0.0605
1.0385,0.0136,-0.0624
1.0571,0.0278,-0.0688
1.0752,0.0502,-0.0742
1.1055,0.0537,-0.0751
1.1142,0.0576,-0.0869
1.1113,0.0654,-0.101
1.1094,0.0767,-0.127
1.1074,0.084,-0.1421
1.1108,0.0986,-0.1538
1.123,0.1118,-0.1685
1.1313,0.124,-0.1782
1.1392,0.1309,-0.1856
1.1489,0.1328,-0.1914
1.1562,0.1406,-0.1953
1.1645,0.147,-0.2012
1.169,0.1499,-0.2056
1.1724,0.1587,-0.2105
1.1832,0.1597,-0.2179
1.188,0.1612,-0.2242
1.191,0.1671,-0.2252
1.1866,0.1627,-0.2345
1.1837,0.1651,-0.2315
1.1934,0.1661,-0.2345
1.1944,0.1661,-0.2306
1.1895,0.1587,-0.2301
1.1797,0.1543,-0.2271
1.171,0.1548,-0.2223
1.1553,0.1485,-0.2227
1.1323,0.1426,-0.2227
1.1142,0.1402,-0.2208
1.0903,0.1392,-0.2135
1.064,0.1333,-0.2022
1.037,0.1284,-0.1939
1.0146,0.1245,-0.1841
0.9897,0.1231,-0.1724
0.9662,0.1167,-0.1665
0.9432,0.1211,-0.1597
0.9178,0.1152,-0.1465
0.8924,0.1133,-0.1387
0.8695,0.1177,-0.1314
0.8455,0.1167,-0.1211
0.8245,0.1128,-0.1143
0.8001,0.1123,-0.1054
0.7781,0.1104,-0.0922
0.7551,0.1079,-0.083
0.7346,0.1021,-0.0722
0.7175,0.0991,-0.0615
0.7033,0.0972,-0.0522
0.6857,0.0952,-0.0439
0.674,0.0918,-0.0366
0.6701,0.0908,-0.0263
0.6555,0.0859,-0.0161
0.6452,0.0835,-0.0107
0.6349,0.0811,-0.0073
0.6329,0.0762,-0.0078
0.6232,0.061,-0.0078
0.6119,0.0615,-0.0161
0.6036,0.063,-0.018
0.5978,0.0532,-0.0234
0.5929,0.0478,-0.0288
0.5861,0.0468,-0.0322
0.5778,0.0449,-0.038
0.5704,0.0341,-0.0454
0.5607,0.0327,-0.0522
0.5587,0.0351,-0.0556
0.5499,0.0297,-0.059
0.545,0.0224,-0.0624
0.5441,0.0195,-0.0668
0.5441,0.0136,-0.0688
0.546,0.0146,-0.0698
0.5538,0.0092,-0.0688
0.5621,0.0082,-0.0693
0.5704,0.0078,-0.0664
0.5778,0.0053,-0.0644
0.5924,0.0073,-0.0615
0.6075,0.0107,-0.0546
0.6276,0.0141,-0.0546
0.6428,0.018,-0.0527
0.6628,0.0209,-0.0497
0.6877,0.0253,-0.0449
0.7077,0.0312,-0.0371
0.7365,0.0346,-0.0371
0.7649,0.0395,-0.0322
0.7952,0.0463,-0.0302
0.824,0.0502,-0.0268
0.8553,0.0571,-0.0229
0.8827,0.0591,-0.0195
0.9144,0.0654,-0.0244
0.9413,0.0757,-0.018
0.9755,0.0845,-0.0204
1.0126,0.0816,-0.0214
1.038,0.0864,-0.0273
1.0688,0.0957,-0.0336
1.0976,0.105,-0.0351
1.1362,0.1089,-0.0336
1.1744,0.1143,-0.0346
1.2134,0.1235,-0.041
1.2501,0.1294,-0.0488
1.2853,0.1392,-0.0527
1.3204,0.1426,-0.0541
1.3585,0.1485,-0.061
1.3967,0.1582,-0.0668
1.4284,0.1671,-0.0707
1.4636,0.171,-0.0766
1.49,0.1847,-0.0874
1.5135,0.1993,-0.0893
1.5418,0.2135,-0.101
1.576,0.2174,-0.102
1.6004,0.2203,-0.1143
1.6214,0.2247,-0.1318
1.6337,0.2291,-0.1494
1.6415,0.2271,-0.1709
1.6459,0.2369,-0.187
1.6415,0.2389,-0.21
1.6385,0.2447,-0.2335
1.6244,0.2476,-0.254
1.6073,0.253,-0.274
1.5823,0.2584,-0.294
1.5574,0.2638,-0.3106
1.533,0.2692,-0.3205
1.4988,0.278,-0.3356
1.4646,0.2834,-0.3395
1.4294,0.2902,-0.3468
1.403,0.3039,-0.3366
1.3894,0.317,-0.3155
1.379,0.3234,-0.295
1.3624,0.3302,-0.2672
1.3488,0.3302,-0.2423
1.3268,0.3351,-0.2144
1.3034,0.3351,-0.1802
1.2824,0.3405,-0.1441
1.2589,0.3429,-0.1074
1.2452,0.3424,-0.0747
1.2271,0.3332,-0.0541
1.2032,0.3131,-0.0497
1.167,0.2848,-0.0532
1.1196,0.2584,-0.0688
1.0571,0.2599,-0.0737
0.995,0.2613,-0.0786
0.9207,0.2647,-0.0654
0.8578,0.2692,-0.0507
0.8054,0.2687,-0.0258
0.7551,0.2692,0.005
0.7185,0.2603,0.0328
0.6769,0.2594,0.0641
0.6423,0.2608,0.0861
0.6071,0.2559,0.1017
0.5753,0.2472,0.1002
0.5416,0.254,0.0875
0.5001,0.2697,0.067
0.4634,0.2882,0.0421
0.4283,0.3136,0.0187
0.4018,0.3366,-0.0053
0.438,0.339,-0.0204
0.5309,0.321,-0.0112
0.5035,0.3468,-0.0361
0.4898,0.3678,-0.0688
0.4961,0.3816,-0.0893
0.5079,0.3913,-0.1231
0.5215,0.3957,-0.1509
0.5358,0.4001,-0.1787
0.5655,0.4031,-0.2135
0.6305,0.3918,-0.2393
0.7429,0.3434,-0.2559
0.8435,0.2887,-0.275
0.9378,0.2467,-0.3072
1.0151,0.2008,-0.342
1.0679,0.1519,-0.3898
1.0981,0.1133,-0.449
1.1138,0.0635,-0.4973
1.1221,0.0175,-0.5447
1.1235,0.0068,-0.5897
1.1533,-0.0362,-0.6097
1.1841,-0.0802,-0.6375
1.2134,-0.1129,-0.6527
1.2432,-0.1496,-0.6581
1.2608,-0.1804,-0.6635
1.2789,-0.2136,-0.6649
1.2868,-0.2048,-0.6483
1.2824,-0.215,-0.6395
1.2799,-0.2487,-0.6287
1.2765,-0.2683,-0.6077
1.2623,-0.2908,-0.5867
1.2471,-0.303,-0.5569
1.2208,-0.3128,-0.5315
1.1959,-0.3245,-0.5017
1.169,-0.3343,-0.4704
1.1367,-0.3406,-0.4465
1.102,-0.3518,-0.4137
1.0708,-0.3606,-0.3708
1.0341,-0.3641,-0.3346
0.998,-0.3665,-0.2975
0.9623,-0.367,-0.2662
0.9183,-0.3719,-0.2257
0.8748,-0.3714,-0.187
0.8352,-0.3641,-0.1489
0.7883,-0.3533,-0.1123
0.7365,-0.3401,-0.0805
0.6828,-0.3162,-0.0512
0.6437,-0.26,-0.0126
0.6232,-0.1784,0.025
0.6334,-0.1276,0.0543
0.6584,-0.0997,0.0807
0.6745,-0.069,0.1086
0.696,-0.044,0.1228
0.7121,-0.0186,0.1306
0.7165,0.02,0.1306
0.7258,0.0566,0.1315
0.739,0.082,0.1247
0.7522,0.1069,0.1105
0.7659,0.1265,0.0997
0.7849,0.1528,0.0851
0.803,0.1768,0.068
0.8176,0.1978,0.0553
0.8391,0.212,0.0324
0.8578,0.2301,0.0074
0.8768,0.2447,-0.0117
0.8924,0.2569,-0.0283
0.9066,0.2663,-0.0541
0.9178,0.2785,-0.0712
0.9251,0.2863,-0.0917
0.933,0.2946,-0.1152
0.9364,0.298,-0.1265
0.9359,0.297,-0.1436
0.9359,0.2941,-0.1568
0.9281,0.2951,-0.1631
0.9149,0.2931,-0.1714
0.9051,0.2863,-0.1729
0.8954,0.276,-0.1792
0.8714,0.2663,-0.1826
0.8479,0.2564,-0.1826
0.822,0.2389,-0.1782
0.7908,0.2213,-0.1714
0.7498,0.2017,-0.1724
0.7087,0.1832,-0.1792
0.6711,0.1553,-0.1763
0.6447,0.1367,-0.1685
0.6271,0.1187,-0.1621
0.6134,0.106,-0.1397
0.608,0.0908,-0.1231
0.6144,0.0752,-0.1059
0.6237,0.0649,-0.0893
0.6374,0.0547,-0.0693
0.6579,0.0463,-0.0532
0.6784,0.0336,-0.0414
0.6999,0.0273,-0.0307
0.7194,0.0214,-0.0229
0.7395,0.0117,-0.0107
0.7674,0.0087,-0.0073
0.7879,0.0092,0.0001
0.8098,0.0048,0.0045
0.8308,-0.0001,0.004
0.8509,-0.0005,0.0006
0.8705,-0.0054,-0.0087
0.8885,-0.0054,-0.02
0.9017,-0.0069,-0.0244
0.911,-0.0069,-0.0361
0.9256,-0.0079,-0.0483
0.9403,-0.0089,-0.061
0.9486,-0.0084,-0.0688
0.9618,-0.0064,-0.0825
0.9755,-0.0049,-0.1005
0.9784,-0.0035,-0.1182
0.9872,-0.003,-0.1304
0.9941,0.0014,-0.1431
1.0009,-0.001,-0.1592
1.0028,0.0019,-0.1675
1.0068,0.0126,-0.1753
1.0307,0.0102,-0.169
1.0351,-0.0025,-0.1685
1.037,-0.0084,-0.1753
1.037,-0.0035,-0.1841
1.04,-0.0054,-0.1831
1.0356,-0.0049,-0.1904
1.0405,-0.0054,-0.1885
1.0414,-0.0074,-0.1861
1.0453,-0.0084,-0.1792
1.0492,-0.0089,-0.1734
1.0536,-0.0152,-0.1729
1.0585,-0.0162,-0.1719
1.061,-0.0181,-0.1685
1.0649,-0.0172,-0.1695
1.064,-0.022,-0.167
1.0644,-0.0284,-0.1665
1.0674,-0.0298,-0.1597
1.0698,-0.0294,-0.1485
1.0752,-0.0323,-0.1392
1.0732,-0.0279,-0.1314
1.0747,-0.0313,-0.1196
1.0742,-0.0328,-0.1064
1.0747,-0.0333,-0.0986
1.0683,-0.0259,-0.0874
1.062,-0.0215,-0.081
1.0575,-0.0162,-0.0712
1.0546,-0.0113,-0.0649
1.0424,-0.0089,-0.0581
1.0321,-0.0054,-0.0502
1.0273,0.0043,-0.0473
1.0229,0.0121,-0.0429
1.016,0.0175,-0.0385
1.0102,0.0248,-0.039
1.0053,0.0268,-0.0312
1.0048,0.0361,-0.0268
1.0028,0.0395,-0.0307
0.995,0.0478,-0.0278
0.9965,0.0532,-0.0244
0.9975,0.063,-0.0244
0.9975,0.064,-0.0229
1.0019,0.0689,-0.0185
1.0097,0.0747,-0.018
1.0151,0.0786,-0.0175
1.0234,0.0947,-0.0097
1.061,0.0952,0.0021
1.0762,0.0791,0.0021
1.0869,0.0762,-0.0024
1.0972,0.0786,-0.0117
1.1099,0.0737,-0.0161
1.124,0.0703,-0.0234
1.1401,0.064,-0.0297
1.1597,0.0522,-0.0297
1.1783,0.04,-0.0322
1.1949,0.0336,-0.0278
1.2115,0.0214,-0.0341
1.2291,0.0136,-0.0385
1.2476,-0.0035,-0.038
1.2569,-0.0128,-0.0371
1.2725,-0.0245,-0.0395
1.2828,-0.0377,-0.0419
1.2911,-0.0469,-0.0405
1.2975,-0.0597,-0.0395
1.3014,-0.0704,-0.0395
1.3024,-0.0778,-0.0371
1.2975,-0.0851,-0.0366
1.3014,-0.0953,-0.0317
1.2999,-0.1041,-0.0248
1.2985,-0.1154,-0.02
1.2965,-0.1222,-0.0097
1.2902,-0.1334,-0.0024
1.2907,-0.1393,0.0001
1.2814,-0.1432,0.0114
1.2789,-0.1456,0.0231
1.2741,-0.1486,0.0226
1.2633,-0.1461,0.0324
1.255,-0.1471,0.0421
1.2442,-0.1442,0.0338
1.2276,-0.1383,0.0138
1.2139,-0.1364,0.0241
1.2032,-0.1359,0.025
1.191,-0.1452,0.0089
1.1822,-0.1554,0.0104
1.1768,-0.1687,0.0221
1.1621,-0.1848,0.0055
1.1519,-0.1911,0.0035
1.1435,-0.1936,0.0201
1.1392,-0.1887,0.0079
1.1313,-0.1857,-0.0092
1.1274,-0.1809,0.0006
1.1279,-0.1818,0.0011
1.1348,-0.1892,-0.0288
1.1406,-0.2024,-0.0449
1.1519,-0.2102,-0.0546
1.1533,-0.2268,-0.0864
1.1592,-0.2429,-0.1226
1.168,-0.2556,-0.1289
1.1724,-0.2737,-0.1455
1.1778,-0.2864,-0.1802
1.188,-0.3001,-0.19
1.1978,-0.3006,-0.2007
1.2169,-0.2986,-0.2345
1.231,-0.2893,-0.2623
1.2486,-0.2737,-0.2706
1.2711,-0.2507,-0.3126
1.2877,-0.2175,-0.3503
1.3078,-0.1731,-0.3576
1.3287,-0.1539,-0.3761
1.3434,-0.1325,-0.4211
1.3502,-0.1066,-0.4377
1.3566,-0.0768,-0.4407
1.3639,-0.0543,-0.4807
1.3649,-0.0264,-0.5041
1.3644,-0.002,-0.4924
1.3605,0.0219,-0.51
1.3532,0.0488,-0.5364
1.3454,0.0776,-0.5261
1.3546,0.1035,-0.5139
1.3527,0.1128,-0.5418
1.3248,0.1133,-0.5394
1.299,0.1284,-0.5124
1.2775,0.1406,-0.5163
1.2584,0.1548,-0.51
1.2364,0.1666,-0.4817
1.2037,0.1803,-0.4831
1.171,0.1905,-0.5017
1.1401,0.2008,-0.4802
1.1147,0.2091,-0.4612
1.0898,0.2208,-0.469
1.0718,0.2144,-0.4529
1.0434,0.232,-0.4216
1.0077,0.2452,-0.422
0.9662,0.2545,-0.428
0.9403,0.2642,-0.402
0.9046,0.2736,-0.3893
0.8763,0.2765,-0.3952
0.8519,0.2873,-0.3683
0.8216,0.297,-0.3459
0.7947,0.3039,-0.36
0.7703,0.3073,-0.3527
0.7473,0.3048,-0.3376
0.7312,0.3097,-0.338
0.7165,0.3097,-0.3439
0.7009,0.3029,-0.3195
0.696,0.3058,-0.2984
0.6979,0.3029,-0.3048
0.6994,0.2995,-0.2975
0.7053,0.299,-0.273
0.7131,0.2941,-0.2789
0.7263,0.2877,-0.2935
0.7355,0.2785,-0.2677
0.7483,0.2726,-0.2584
0.759,0.2603,-0.2779
0.7727,0.2447,-0.2647
0.7854,0.2262,-0.2457
0.7932,0.2086,-0.2633
0.7986,0.1964,-0.2701
0.8006,0.1876,-0.2506
0.8064,0.1851,-0.2574
0.8162,0.1807,-0.2735
0.825,0.1798,-0.254
0.8377,0.1798,-0.2447
0.8479,0.1759,-0.255
0.8646,0.1734,-0.2447
0.8783,0.1768,-0.2203
0.8939,0.1793,-0.2262
0.9051,0.1788,-0.2213
0.9203,0.1788,-0.1929
0.9349,0.1803,-0.1944
0.9452,0.1827,-0.2027
0.9599,0.1812,-0.189
0.974,0.1847,-0.1738
0.9877,0.1866,-0.1836
0.9994,0.1812,-0.1782
1.0082,0.1812,-0.1611
1.0195,0.1778,-0.1714
1.0278,0.1724,-0.1812
1.0375,0.1676,-0.1572
1.0444,0.1641,-0.1582
1.0517,0.1602,-0.1812
1.0575,0.1524,-0.1655
1.0698,0.1441,-0.1514
1.081,0.1367,-0.166
1.0849,0.1289,-0.1646
1.0928,0.1206,-0.147
1.1011,0.1167,-0.1524
1.104,0.1167,-0.166
1.1089,0.1113,-0.1455
1.1147,0.1089,-0.1421
1.1245,0.1094,-0.1587
1.1318,0.1035,-0.145
1.1382,0.106,-0.1299
1.1431,0.104,-0.1431
1.146,0.103,-0.1402
1.1489,0.103,-0.127
1.1494,0.106,-0.1362
1.147,0.104,-0.1377
1.1377,0.106,-0.1138
1.1323,0.1084,-0.1152
1.124,0.1055,-0.1279
1.1138,0.1035,-0.1138
1.0981,0.1084,-0.0927
1.0815,0.1109,-0.1069
1.0654,0.1152,-0.1035
1.0522,0.1196,-0.082
1.0341,0.1245,-0.0825
1.018,0.1294,-0.0874
0.996,0.1289,-0.0678
0.9799,0.1372,-0.0571
0.9638,0.1411,-0.0698
0.9466,0.1436,-0.06
0.9286,0.146,-0.0454
0.9134,0.147,-0.0585
0.9012,0.1519,-0.062
0.8817,0.1509,-0.0478
0.8641,0.1568,-0.0522
0.8504,0.1597,-0.0703
0.8362,0.1637,-0.0581
0.8167,0.1646,-0.0522
0.802,0.1641,-0.0722
0.7869,0.1661,-0.0761
0.7771,0.1715,-0.0654
0.76,0.1763,-0.08
0.7434,0.1749,-0.0932
0.7326,0.1763,-0.0839
0.7199,0.1817,-0.0927
0.7121,0.1807,-0.104
0.6994,0.1871,-0.0996
0.6892,0.1861,-0.1035
0.6828,0.1886,-0.1094
0.6745,0.1881,-0.1133
0.6711,0.1851,-0.1192
0.6618,0.1837,-0.1235
0.6599,0.1847,-0.1318
0.6569,0.1842,-0.1289
0.6501,0.1812,-0.127
0.6501,0.1817,-0.1323
0.652,0.1793,-0.1328
0.6481,0.1729,-0.1294
0.6501,0.1661,-0.127
0.6589,0.1563,-0.1235
0.6603,0.1494,-0.1143
0.6652,0.1436,-0.1118
0.673,0.1348,-0.1059
0.6804,0.1279,-0.0966
0.6887,0.1206,-0.0864
0.6965,0.1113,-0.0776
0.7053,0.1021,-0.0712
0.717,0.0947,-0.06
0.7277,0.0869,-0.0581
0.737,0.0791,-0.0458
0.7488,0.0723,-0.0356
0.7605,0.0669,-0.0263
0.7737,0.0566,-0.02
0.783,0.0542,-0.0141
0.7986,0.0507,-0.0102
0.8108,0.0463,-0.0058
0.826,0.0395,-0.0004
0.8411,0.0327,0.0035
0.8519,0.0375,0.0074
0.8675,0.0361,0.0079
0.8851,0.0273,0.0089
0.8939,0.02,0.0026
0.9061,0.017,-0.0004
0.9154,0.0185,0.0016
0.9291,0.0161,-0.0038
0.9471,0.0146,-0.0082
0.9672,0.0165,-0.0121
0.9765,0.0214,-0.018
0.9926,0.0224,-0.0253
1.0038,0.0263,-0.0346
1.018,0.0292,-0.0454
1.0312,0.0297,-0.0463
1.0507,0.0361,-0.0561
1.0625,0.039,-0.0605
1.0815,0.0488,-0.0629
1.0996,0.0542,-0.0649
1.1133,0.0649,-0.0683
1.1338,0.0747,-0.0668
1.1519,0.0811,-0.0654
1.166,0.0879,-0.0624
1.1827,0.0996,-0.0649
1.2037,0.1104,-0.0629
1.2149,0.1196,-0.06
1.2257,0.1299,-0.0639
1.2413,0.1411,-0.0605
1.2535,0.1538,-0.06
1.2589,0.1651,-0.0576
1.2691,0.1798,-0.0585
1.2853,0.1915,-0.0634
1.2897,0.2047,-0.0668
1.2951,0.2213,-0.0727
1.3087,0.2262,-0.0688
1.3161,0.2393,-0.0776
1.3244,0.2501,-0.0898
1.3297,0.2603,-0.0961
1.3327,0.2663,-0.1064
1.3375,0.276,-0.1182
1.3434,0.2863,-0.126
1.3419,0.2907,-0.1411
1.3424,0.2956,-0.1538
1.3346,0.3048,-0.1675
1.3278,0.3097,-0.1714
1.3146,0.3136,-0.1773
1.3034,0.3156,-0.1861
1.2887,0.3224,-0.1904
1.275,0.3214,-0.1958
1.2647,0.3205,-0.1978
1.2481,0.3219,-0.1944
1.2349,0.3239,-0.1924
1.2193,0.3229,-0.1856
1.2061,0.3229,-0.1831
1.1954,0.3214,-0.1709
1.1866,0.3175,-0.1597
1.1763,0.3127,-0.1533
1.168,0.3117,-0.148
1.1587,0.2995,-0.1436
1.147,0.2936,-0.1485
1.1328,0.2892,-0.1533
1.1221,0.2755,-0.1646
1.1089,0.2642,-0.1758
1.0893,0.2491,-0.19
1.0635,0.2511,-0.1944
1.037,0.2564,-0.1963
1.0092,0.2559,-0.1875
0.9838,0.2618,-0.1753
0.9696,0.2574,-0.1616
0.9589,0.2511,-0.1485
0.9432,0.2511,-0.1333
0.9354,0.2501,-0.1143
0.9247,0.2467,-0.0966
0.9183,0.2491,-0.082
0.9129,0.2506,-0.0668
0.9056,0.252,-0.0585
0.9017,0.2545,-0.0556
0.8954,0.2647,-0.0561
0.8924,0.2829,-0.059
0.8905,0.2985,-0.0649
0.891,0.3122,-0.0693
0.9041,0.3244,-0.0771
0.9178,0.3317,-0.0869
0.9393,0.3395,-0.0961
0.9677,0.3415,-0.1094
1.0033,0.3434,-0.1211
1.0356,0.3337,-0.1397
1.0688,0.3156,-0.1543
1.0962,0.2907,-0.1768
1.1304,0.2599,-0.2031
1.1631,0.232,-0.2291
1.192,0.1969,-0.2564
1.2178,0.1617,-0.2979
1.2388,0.1392,-0.3317
1.2589,0.1157,-0.3727
1.2809,0.0923,-0.4113
1.3019,0.0767,-0.4455
1.3156,0.0606,-0.4787
1.3248,0.039,-0.511
1.3297,0.0405,-0.5335
1.3463,0.0175,-0.5506
1.3439,-0.023,-0.5711
1.3273,-0.0342,-0.5872
1.3126,-0.0508,-0.598
1.2819,-0.0714,-0.6068
1.251,-0.0827,-0.6107
1.2217,-0.1022,-0.6111
1.1832,-0.1168,-0.6038
1.1411,-0.131,-0.5989
1.1064,-0.1442,-0.5892
1.0742,-0.1525,-0.5755
1.0341,-0.1687,-0.5555
1.0009,-0.1779,-0.5359
0.9701,-0.1862,-0.5115
0.9305,-0.1887,-0.4856
0.8963,-0.1994,-0.4612
0.8656,-0.1999,-0.4319
0.8289,-0.197,-0.3976
0.7952,-0.198,-0.3639
0.762,-0.195,-0.3297
0.7351,-0.1897,-0.297
0.7062,-0.1765,-0.2599
0.6799,-0.1672,-0.2276
0.6599,-0.1574,-0.1929
0.6428,-0.1466,-0.1528
0.63,-0.1378,-0.1167
0.6276,-0.1227,-0.0854
0.6212,-0.1085,-0.0566
0.6207,-0.0978,-0.0302
0.631,-0.0822,-0.0048
0.6349,-0.0724,0.0157
0.6447,-0.0592,0.026
0.655,-0.0499,0.0397
0.6657,-0.0357,0.0568
0.6789,-0.023,0.0626
0.6882,-0.0103,0.0685
0.7043,0.0034,0.0729
0.7224,0.0195,0.0714
0.7419,0.0356,0.0621
0.761,0.0458,0.0573
0.7771,0.0586,0.0499
0.7967,0.0684,0.0387
0.8128,0.0781,0.025
0.826,0.0879,0.0089
0.8377,0.0957,-0.0092
0.8504,0.1025,-0.0312
0.8631,0.1084,-0.0551
0.8729,0.1162,-0.0737
0.8812,0.1187,-0.1005
0.8885,0.1235,-0.124
0.8954,0.1289,-0.1514
0.9007,0.1309,-0.1778
0.9022,0.1309,-0.2007
0.9037,0.1314,-0.2213
0.9066,0.1328,-0.2442
0.9032,0.1343,-0.2633
0.9061,0.1362,-0.2804
0.9076,0.1392,-0.2926
0.9032,0.1353,-0.3067
0.8944,0.1348,-0.3141
0.8958,0.1372,-0.318
0.8924,0.1411,-0.3244
0.8866,0.1382,-0.3239
0.8875,0.1358,-0.3219
0.8836,0.1382,-0.3145
0.8812,0.1402,-0.3062
0.8797,0.1441,-0.2979
0.8831,0.1436,-0.2838
0.8831,0.1406,-0.2677
0.8924,0.1406,-0.2525
0.8988,0.1402,-0.2364
0.9056,0.1382,-0.231
0.9139,0.1382,-0.2154
0.9261,0.1377,-0.1983
0.9413,0.1367,-0.1841
0.9457,0.1358,-0.1685
0.956,0.1314,-0.1592
0.9623,0.1265,-0.146
0.977,0.1265,-0.1367
0.9765,0.1231,-0.1284
0.977,0.1152,-0.1196
0.9828,0.1113,-0.1182
0.9814,0.105,-0.1148
0.9828,0.0986,-0.1152
0.9799,0.0899,-0.1167
0.9711,0.082,-0.1187
0.9594,0.0762,-0.1211
0.956,0.0703,-0.126
0.9408,0.0615,-0.127
0.9349,0.0547,-0.1338
0.9232,0.0458,-0.1445
0.9129,0.0385,-0.146
0.909,0.0307,-0.146
0.8968,0.0248,-0.1563
0.8856,0.017,-0.1558
0.8797,0.0121,-0.1494
0.8734,0.0019,-0.1514
0.8685,-0.004,-0.1533
0.8597,-0.0113,-0.1514
0.8573,-0.0269,-0.1475
0.8519,-0.0338,-0.1426
0.8421,-0.046,-0.1353
0.8357,-0.0484,-0.1289
0.8289,-0.0538,-0.1148
0.8235,-0.0592,-0.0976
0.8137,-0.0636,-0.0932
0.802,-0.0685,-0.0859
0.7952,-0.068,-0.0766
0.784,-0.0685,-0.0659
0.7742,-0.0675,-0.0571
0.7625,-0.0714,-0.0493
0.7498,-0.0753,-0.0395
0.7424,-0.0739,-0.0283
0.7355,-0.0724,-0.0161
0.7248,-0.0675,-0.0082
0.7155,-0.0656,-0.0009
0.7082,-0.067,0.0099
0.7053,-0.0651,0.0153
0.7023,-0.0665,0.0231
0.7077,-0.0621,0.0255
0.7077,-0.0543,0.0304
0.7092,-0.0543,0.0299
0.7121,-0.0553,0.0324
0.7175,-0.0534,0.0358
0.7238,-0.0528,0.0377
0.7287,-0.0455,0.0367
0.736,-0.0421,0.0367
0.7464,-0.0386,0.0319
0.7615,-0.0406,0.0358
0.7717,-0.0352,0.0299
0.7835,-0.0342,0.026
0.7908,-0.0279,0.0201
0.803,-0.022,0.0157
0.8142,-0.0225,0.0065
0.822,-0.0201,-0.0014
0.8343,-0.0162,-0.0112
0.844,-0.0157,-0.0204
0.8548,-0.0162,-0.0312
0.8636,-0.0162,-0.0419
0.8753,-0.0118,-0.0468
0.8856,-0.0089,-0.0532
0.9027,-0.0074,-0.0605
0.9188,-0.0113,-0.0634
0.9364,-0.0054,-0.0664
0.9599,0.0009,-0.0727
0.9765,-0.0015,-0.0781
0.9936,-0.0059,-0.0815
1.0121,-0.0035,-0.0869
1.038,-0.001,-0.0927
1.0561,-0.002,-0.0991
1.0742,-0.002,-0.0971
1.0918,0.0014,-0.101
1.1138,0.0009,-0.1015
1.1323,0.0034,-0.1054
1.1475,0.0043,-0.101
1.17,0.0019,-0.0996
1.1837,0.0073,-0.103
1.1959,0.0019,-0.0996
1.21,0.0063,-0.1005
1.2193,0.0097,-0.1
1.2349,0.0058,-0.0996
1.2403,0.0092,-0.0986
1.2491,0.0087,-0.0991
1.255,0.0063,-0.101
1.2652,0.0175,-0.0947
1.2838,0.0136,-0.0864
1.2902,0.0053,-0.0839
1.2882,0.0014,-0.0825
1.2853,-0.0001,-0.0834
1.2843,-0.0005,-0.0815
1.276,-0.004,-0.0781
1.2706,-0.0074,-0.0776
1.2637,-0.0079,-0.0751
1.2584,-0.0137,-0.0756
1.2496,-0.0196,-0.0707
1.2379,-0.023,-0.0659
1.2286,-0.0264,-0.061
1.2149,-0.0284,-0.0541
1.2047,-0.0342,-0.0502
1.1954,-0.0377,-0.0439
1.1885,-0.0421,-0.0361
1.1846,-0.0445,-0.0288
1.1846,-0.0513,-0.0195
1.1837,-0.0513,-0.0082
1.1797,-0.0573,-0.0024
1.1773,-0.0602,0.005
1.1714,-0.0607,0.0084
1.1641,-0.0602,0.0123
1.1558,-0.0621,0.0162
1.1504,-0.0651,0.0187
1.1435,-0.0665,0.0231
1.1318,-0.0665,0.0226
1.1265,-0.0626,0.0241
1.1216,-0.0592,0.0265
1.1108,-0.0587,0.027
1.1059,-0.0528,0.0265
1.1011,-0.0484,0.0241
1.0918,-0.0489,0.0211
1.0806,-0.0479,0.0182
1.0718,-0.0499,0.0182
1.0649,-0.0411,0.0138
1.058,-0.0362,0.0099
1.0561,-0.0362,0.005
1.0531,-0.0386,0.0055
1.0517,-0.0357,0.0031
1.0488,-0.0274,0.0045
1.0439,-0.025,0.0006
1.0463,-0.0176,0.0031
1.0615,0.0087,0.0026
1.0864,0.0244,0.0123
1.0703,0.02,-0.0058
1.0434,0.0356,-0.0361
1.0282,0.0327,-0.0654
1.0248,0.0087,-0.0825
1.0282,-0.0123,-0.0927
1.0307,-0.0284,-0.1005
1.0346,-0.0382,-0.102
1.0326,-0.0401,-0.1064
1.0409,-0.0313,-0.101
1.0561,-0.0206,-0.0971
1.0757,-0.0157,-0.0903
1.1064,-0.0142,-0.0771
1.1494,-0.0186,-0.0742
1.2047,-0.043,-0.0664
1.252,-0.0724,-0.0668
1.2804,-0.1159,-0.0747
1.299,-0.1539,-0.0859
1.3146,-0.1936,-0.0966
1.3302,-0.2356,-0.1049
1.3375,-0.2727,-0.1157
1.3439,-0.2805,-0.1172
1.3693,-0.3084,-0.1152
1.3928,-0.3421,-0.1328
1.4133,-0.3479,-0.1582
1.4455,-0.3489,-0.1831
1.4773,-0.3416,-0.2041
1.5174,-0.3387,-0.2296
1.5579,-0.324,-0.252
1.596,-0.3123,-0.2696
1.6361,-0.2967,-0.2945
1.6595,-0.2634,-0.3072
1.6234,-0.1892,-0.3332
1.641,-0.1687,-0.3561
1.659,-0.1696,-0.3708
1.6571,-0.1549,-0.3893
1.6571,-0.1388,-0.4084
1.6542,-0.129,-0.4216
1.6493,-0.1163,-0.4353
1.6561,-0.0968,-0.4392
1.6669,-0.0792,-0.4451
1.6722,-0.0636,-0.4416
1.6883,-0.0489,-0.4416
1.704,-0.0259,-0.4304
1.7153,0.0038,-0.4152
1.7236,0.0463,-0.3971
1.7319,0.1006,-0.3796
1.7245,0.1773,-0.3634
1.66,0.2418,-0.3561
1.5813,0.2472,-0.3722
1.5198,0.2398,-0.3693
1.469,0.2423,-0.3615
1.4152,0.2384,-0.3625
1.3473,0.2545,-0.3678
1.2745,0.2687,-0.3766
1.1954,0.2731,-0.3942
1.1226,0.2799,-0.4079
1.0512,0.2858,-0.425
0.9775,0.2863,-0.4294
0.91,0.2853,-0.427
0.8514,0.2838,-0.4309
0.7991,0.2794,-0.422
0.7488,0.2647,-0.4128
0.7229,0.2569,-0.4035
0.7409,0.2281,-0.3708
0.716,0.2198,-0.3473
0.6926,0.2227,-0.3268
0.676,0.2227,-0.3106
0.6623,0.2193,-0.2984
0.6447,0.212,-0.2838
0.6212,0.2022,-0.2686
0.6046,0.1964,-0.2642
0.5787,0.1876,-0.253
0.5587,0.1793,-0.2442
0.5387,0.1729,-0.2359
0.5323,0.1612,-0.2286
0.5328,0.1485,-0.2179
0.5343,0.1333,-0.2066
0.5402,0.1196,-0.1924
0.5475,0.0986,-0.1778
0.5612,0.0747,-0.1636
0.5768,0.0591,-0.1563
0.5997,0.0527,-0.1426
0.6188,0.0473,-0.1231
0.6389,0.0312,-0.1143
0.653,0.0097,-0.1113
0.6481,-0.0181,-0.1133
0.6408,-0.0225,-0.1265
0.63,-0.0142,-0.1441
0.6241,-0.0025,-0.1568
0.6276,-0.0005,-0.1699
0.6276,0.0073,-0.1812
0.6334,0.0117,-0.1885
0.6354,0.0146,-0.1953
0.6408,0.0229,-0.2007
0.6721,0.04,-0.1919
0.7121,0.0312,-0.1704
0.7351,0.0224,-0.1563
0.7605,0.0239,-0.1504
0.78,0.0292,-0.146
0.7932,0.0292,-0.1387
0.805,0.0322,-0.1299
0.8206,0.039,-0.126
0.8308,0.0458,-0.1128
0.8479,0.0552,-0.1084
0.8597,0.0562,-0.1059
0.8705,0.064,-0.0937
0.8812,0.0708,-0.0888
0.8998,0.0791,-0.08
0.911,0.085,-0.0815
0.9212,0.0938,-0.08
0.9334,0.0991,-0.0761
0.9476,0.1084,-0.0727
0.9682,0.1152,-0.0771
0.9809,0.1235,-0.0815
0.995,0.1314,-0.0815
1.0121,0.1406,-0.0888
1.0356,0.147,-0.0932
1.0556,0.1572,-0.0991
1.081,0.1587,-0.1113
1.0952,0.1572,-0.1152
1.1113,0.1572,-0.1221
1.1269,0.1607,-0.1309
1.1377,0.1577,-0.1402
1.1435,0.1612,-0.1489
1.1553,0.1572,-0.1626
1.1504,0.1553,-0.1748
1.145,0.1509,-0.1831
1.1421,0.145,-0.189
1.1313,0.1426,-0.1963
1.123,0.1392,-0.2007
1.1167,0.1328,-0.2041
1.1064,0.1328,-0.2031
1.0942,0.1289,-0.2012
1.0835,0.1255,-0.1963
1.0683,0.1206,-0.189
1.0473,0.1177,-0.1841
1.037,0.1152,-0.1797
1.0243,0.1162,-0.1665
1.0072,0.1162,-0.1602
0.9906,0.1118,-0.147
0.9765,0.1104,-0.1377
0.9569,0.1113,-0.1304
0.9388,0.1148,-0.1201
0.9207,0.1162,-0.1079
0.9012,0.1177,-0.1
0.8817,0.1177,-0.0952
0.8695,0.1123,-0.0893
0.8504,0.1177,-0.0844
0.8333,0.1187,-0.0805
0.8162,0.1157,-0.0761
0.7981,0.1196,-0.079
0.7849,0.1177,-0.0766
0.7737,0.1187,-0.0786
0.7522,0.1157,-0.0815
0.7404,0.1138,-0.0844
0.7248,0.1182,-0.0839
0.7111,0.1152,-0.0864
0.6926,0.1113,-0.0864
0.6813,0.1128,-0.0913
0.6691,0.1138,-0.0942
0.6579,0.1143,-0.0981
0.6525,0.1148,-0.0976
0.6398,0.1172,-0.1049
0.629,0.1143,-0.1025
0.6266,0.1133,-0.1025
0.6183,0.1128,-0.1049
0.6183,0.1148,-0.1044
0.6124,0.1133,-0.1005
0.6134,0.1113,-0.101
0.6149,0.1104,-0.1035
0.6222,0.1104,-0.0981
0.6281,0.1025,-0.0981
0.632,0.1011,-0.0947
0.6457,0.1016,-0.0927
0.6579,0.0952,-0.0859
0.6726,0.0903,-0.0854
0.6853,0.0894,-0.0834
0.7014,0.0855,-0.079
0.7141,0.0845,-0.0751
0.7321,0.083,-0.0712
0.7498,0.0786,-0.0639
0.7688,0.0791,-0.06
0.783,0.0791,-0.0581
0.7967,0.0757,-0.0507
0.8162,0.0737,-0.0463
0.8303,0.0698,-0.0424
0.8469,0.0703,-0.0361
0.8607,0.063,-0.0327
0.8758,0.061,-0.0283
0.8924,0.061,-0.0219
0.91,0.061,-0.0229
0.9266,0.0601,-0.02
0.9427,0.0601,-0.018
0.9633,0.061,-0.018
0.9828,0.0606,-0.0239
0.9985,0.0596,-0.0185
1.0195,0.063,-0.0185
1.0341,0.0654,-0.0234
1.0522,0.0674,-0.0278
1.0693,0.0693,-0.0292
1.0859,0.0698,-0.0366
1.1025,0.0742,-0.039
1.1177,0.0776,-0.0439
1.1362,0.0825,-0.0522
1.1509,0.0816,-0.0571
1.1665,0.0869,-0.0605
1.1802,0.0933,-0.0688
1.1885,0.0982,-0.0805
1.1964,0.1001,-0.0874
1.2071,0.1055,-0.0952
1.2149,0.1084,-0.1005
1.2183,0.1187,-0.1104
1.2183,0.1221,-0.1162
1.2247,0.1314,-0.125
1.2257,0.1377,-0.1382
1.2261,0.1455,-0.1475
1.231,0.1558,-0.1504
1.232,0.1646,-0.1568
1.2315,0.169,-0.1626
1.2281,0.1749,-0.1704
1.2261,0.1871,-0.1734
1.2193,0.189,-0.1758
1.2154,0.1934,-0.1763
1.2105,0.1944,-0.1812
1.1978,0.1969,-0.1812
1.1885,0.2022,-0.1773
1.1778,0.2042,-0.1792
1.166,0.2071,-0.1778
1.1606,0.2076,-0.1685
1.1523,0.2125,-0.1665
1.147,0.2159,-0.1568
1.144,0.2125,-0.1494
1.1387,0.2135,-0.1372
1.1357,0.213,-0.1304
1.1352,0.2149,-0.124
1.1333,0.214,-0.1089
1.1348,0.2144,-0.0961
1.1367,0.2115,-0.0869
1.1382,0.2105,-0.0756
1.1382,0.21,-0.0639
1.1406,0.2135,-0.059
1.1392,0.2125,-0.0478
1.1426,0.2125,-0.0434
1.1475,0.2105,-0.0331
1.1479,0.2144,-0.0288
1.1523,0.2115,-0.0214
1.1592,0.2086,-0.0146
1.1587,0.21,-0.0043
1.1621,0.2047,-0.0014
1.165,0.2047,0.0045
1.1749,0.2052,0.007
1.1758,0.1988,0.0089
1.1851,0.1964,0.0118
1.1915,0.1886,0.0118
1.1959,0.1856,0.0109
1.2056,0.1851,0.0157
1.2095,0.1793,0.0143
1.2257,0.1724,0.0133
1.2364,0.171,0.0099
1.2442,0.1632,0.0128
1.2564,0.1572,0.0118
1.2672,0.1445,0.0104
1.2745,0.1362,0.0016
1.2799,0.127,-0.02
1.2863,0.1143,-0.0444
1.2868,0.1021,-0.0712
1.2736,0.103,-0.1025
1.2618,0.1104,-0.1318
1.2462,0.1113,-0.1514
1.2364,0.1148,-0.1719
1.2261,0.1118,-0.1939
1.2149,0.1152,-0.1929
1.2071,0.1216,-0.2027
1.1954,0.1231,-0.2036
1.1915,0.1235,-0.1988
1.1832,0.1235,-0.2022
1.1739,0.1279,-0.2164
1.1621,0.1372,-0.2325
1.1455,0.148,-0.2447
1.1362,0.1671,-0.2618
1.1304,0.1905,-0.2833
1.1304,0.2096,-0.2975
1.1255,0.2296,-0.3062
1.1309,0.2501,-0.3141
1.1382,0.2682,-0.3126
1.1509,0.2887,-0.3077
1.1611,0.297,-0.3048
1.1773,0.2941,-0.2984
1.1983,0.3,-0.2975
1.2164,0.2946,-0.3009
1.2227,0.2838,-0.3165
1.2252,0.2711,-0.3312
1.2252,0.2647,-0.3547
1.2266,0.2599,-0.3766
1.2291,0.2501,-0.4074
1.2257,0.2389,-0.4314
1.2227,0.2281,-0.4543
1.213,0.2115,-0.4773
1.2007,0.1964,-0.4914
1.1939,0.1851,-0.508
1.1861,0.1763,-0.5149
1.1714,0.1671,-0.5256
1.1602,0.1548,-0.5325
1.1396,0.1382,-0.5355
1.1172,0.1289,-0.5394
1.0962,0.1172,-0.5394
1.0669,0.1021,-0.5389
1.038,0.0884,-0.5295
1.0063,0.0742,-0.5237
0.9672,0.0596,-0.511
0.93,0.0488,-0.4934
0.8905,0.0336,-0.4744
0.8538,0.0165,-0.4519
0.8181,0.0053,-0.427
0.7805,-0.0005,-0.404
0.737,-0.0098,-0.3752
0.6965,-0.0235,-0.342
0.6647,-0.0342,-0.3136
0.6266,-0.044,-0.2833
0.5968,-0.0518,-0.2525
0.5699,-0.0617,-0.2227
0.545,-0.07,-0.1914
0.5269,-0.0763,-0.1655
0.5132,-0.0831,-0.1333
0.504,-0.0885,-0.1015
0.5054,-0.0978,-0.0732
0.503,-0.1022,-0.0551
0.5098,-0.1041,-0.0327
0.522,-0.1017,-0.0107
0.546,-0.0973,0.004
0.5865,-0.0929,0.0182
0.6349,-0.0831,0.0289
0.676,-0.0851,0.027
0.7038,-0.0817,0.0226
0.7312,-0.0773,0.0123
0.7517,-0.0714,0.0016
0.7717,-0.066,-0.0146
0.801,-0.0582,-0.0283
0.8225,-0.0489,-0.0405
0.8426,-0.0377,-0.059
0.8597,-0.0274,-0.0805
0.8729,-0.022,-0.1044
0.8841,-0.0089,-0.1348
0.8973,0.0082,-0.1611
0.9129,0.0214,-0.189
0.9203,0.0273,-0.2183
0.9359,0.0385,-0.2418
0.9461,0.0483,-0.2618
0.9565,0.0562,-0.2779
0.9638,0.0659,-0.3018
0.9711,0.0742,-0.317
0.9794,0.082,-0.3332
0.9892,0.0899,-0.3444
0.9945,0.0942,-0.3527
0.9975,0.0991,-0.362
1.0009,0.1065,-0.3673
1.0014,0.1094,-0.3669
0.9921,0.1157,-0.3678
0.9945,0.1201,-0.3659
0.9906,0.1201,-0.361
0.9814,0.125,-0.3522
0.9731,0.1265,-0.3459
0.9701,0.127,-0.3351
0.9628,0.1275,-0.3293
0.9569,0.1245,-0.3165
0.953,0.1289,-0.2994
0.9471,0.1304,-0.2833
0.9432,0.1284,-0.2691
0.9437,0.1265,-0.2481
0.9403,0.1226,-0.2335
0.9408,0.1221,-0.2179
0.9427,0.1231,-0.1988
0.9398,0.1187,-0.1831
0.9417,0.1148,-0.1646
0.9437,0.1118,-0.1548
0.9887,0.1162,-0.1377
0.9994,0.1187,-0.0961
0.9872,0.1011,-0.0927
0.9814,0.0952,-0.0942
0.9633,0.0962,-0.0996
0.9491,0.0894,-0.1084
0.9349,0.084,-0.1118
0.9227,0.083,-0.1172
0.9193,0.0742,-0.1162
0.9105,0.0713,-0.1201
0.9032,0.0664,-0.124
0.8973,0.0571,-0.1265
0.8954,0.0527,-0.1387
0.8846,0.0414,-0.1421
0.8802,0.0385,-0.1504
0.8748,0.0317,-0.1538
0.8646,0.0224,-0.1577
0.8553,0.0175,-0.1675
0.8484,0.0102,-0.1714
0.8455,0.0063,-0.1724
0.8435,-0.0025,-0.167
0.8362,-0.0064,-0.1636
0.8362,-0.0069,-0.1553
0.8303,-0.0152,-0.1563
0.8303,-0.022,-0.148
0.8269,-0.0269,-0.1367
0.8225,-0.0284,-0.1309
0.8152,-0.0352,-0.1196
0.8108,-0.0401,-0.1099
0.8084,-0.046,-0.0986
0.8035,-0.0494,-0.0878
0.8025,-0.0553,-0.079
0.7967,-0.0587,-0.0678
0.7932,-0.0597,-0.0566
0.7879,-0.0636,-0.0532
0.784,-0.0621,-0.0434
0.7786,-0.0665,-0.038
0.7688,-0.0641,-0.0366
0.7586,-0.0651,-0.0248
0.7537,-0.0621,-0.0219
0.7483,-0.0641,-0.0175
0.7424,-0.0641,-0.0121
0.7351,-0.0602,-0.0141
0.7326,-0.0607,-0.0126
0.7312,-0.0621,-0.0107
0.7272,-0.0592,-0.0112
0.7297,-0.0573,-0.0107
0.7355,-0.0543,-0.0131
0.7365,-0.0543,-0.0126
0.7404,-0.0563,-0.0141
0.7503,-0.0528,-0.0161
0.7581,-0.0474,-0.018
0.7678,-0.0435,-0.0151
0.7747,-0.0425,-0.0151
0.7835,-0.0396,-0.0219
0.8001,-0.0338,-0.0234
0.8167,-0.0303,-0.0297
0.8318,-0.0284,-0.0322
0.8519,-0.0255,-0.0322
0.8626,-0.0186,-0.0424
0.8827,-0.0142,-0.0512
0.8963,-0.0084,-0.0556
0.9168,-0.0025,-0.0581
0.931,-0.002,-0.0659
0.9481,0.0053,-0.0732
0.9696,0.0082,-0.0849
0.9833,0.0097,-0.0903
0.9989,0.0175,-0.0971
1.018,0.017,-0.1059
1.0365,0.0165,-0.1143
1.0497,0.0297,-0.1221
1.0693,0.0278,-0.1314
1.084,0.0283,-0.1377
1.1045,0.0312,-0.1445
1.1177,0.0361,-0.1538
1.1333,0.0366,-0.1636
1.1504,0.04,-0.168
1.1592,0.0581,-0.1719
1.1998,0.0502,-0.1587
1.2193,0.0302,-0.1602
1.2257,0.0268,-0.1729
1.2305,0.0283,-0.1787
1.2335,0.0278,-0.187
1.2408,0.0229,-0.1914
1.2462,0.0175,-0.1953
1.2554,0.0112,-0.1983
1.2603,0.0043,-0.1914
1.2647,-0.0049,-0.1841
1.2657,-0.0152,-0.1807
1.2691,-0.0206,-0.1704
1.2608,-0.0274,-0.1563
1.2618,-0.0342,-0.1436
1.252,-0.0411,-0.1333
1.2437,-0.046,-0.1221
1.2364,-0.0513,-0.1035
1.2257,-0.0553,-0.0922
1.2144,-0.0587,-0.0756
1.2042,-0.0612,-0.062
1.1978,-0.0631,-0.0502
1.1851,-0.0641,-0.0322
1.1773,-0.066,-0.0219
1.17,-0.0641,-0.0102
1.1655,-0.0675,0.0016
1.1645,-0.0617,0.0099
1.1645,-0.0612,0.0172
1.1636,-0.0602,0.0221
1.1685,-0.0587,0.0265
1.1739,-0.0597,0.0299
1.1788,-0.0518,0.0338
1.1866,-0.0499,0.0343
1.1944,-0.045,0.0377
1.2066,-0.043,0.0333
1.21,-0.0479,0.026
1.2242,-0.0484,0.0192
1.2315,-0.0484,0.0104
1.2398,-0.045,0.0026
1.2471,-0.0396,-0.0058
1.253,-0.0406,-0.018
1.2618,-0.0313,-0.0273
1.3004,-0.0152,-0.0204
1.3307,-0.0289,-0.0165
1.3395,-0.023,-0.0248
1.3507,-0.0162,-0.0346
1.3576,-0.0108,-0.0483
1.3673,0.0019,-0.0546
1.3776,0.0097,-0.0576
1.3825,0.0224,-0.0605
1.385,0.0312,-0.0605
1.3855,0.0405,-0.0712
1.3737,0.0591,-0.0795
1.3629,0.0674,-0.0908
1.3532,0.0684,-0.1005
1.34,0.0703,-0.1094
1.3356,0.063,-0.1128
1.3292,0.0502,-0.1172
1.3092,0.0478,-0.1235
1.2955,0.0424,-0.127
1.277,0.0361,-0.126
1.2589,0.0356,-0.1162
1.2359,0.0395,-0.1167
1.2173,0.039,-0.1231
1.1978,0.0346,-0.1333
1.1807,0.0175,-0.1514
1.1582,-0.0132,-0.1724
1.1416,-0.0587,-0.1948
1.126,-0.0978,-0.2188
1.1103,-0.1393,-0.2418
1.104,-0.1818,-0.2603
1.1074,-0.2209,-0.2794
1.1094,-0.2531,-0.2882
1.1103,-0.2815,-0.2989
1.1099,-0.3015,-0.3062
1.1099,-0.3074,-0.3126
1.1118,-0.3015,-0.3189
1.1201,-0.2619,-0.3234
1.1729,-0.2522,-0.3111
1.1978,-0.2517,-0.3224
1.2115,-0.2282,-0.3444
1.2222,-0.1931,-0.3703
1.233,-0.1569,-0.3913
1.2408,-0.1295,-0.4128
1.251,-0.1056,-0.428
1.2545,-0.0778,-0.4333
1.2584,-0.0499,-0.4397
1.2613,-0.0215,-0.4368
1.2657,0.0078,-0.4289
1.2667,0.0405,-0.4152
1.2618,0.0781,-0.4074
1.254,0.1138,-0.3981
1.2374,0.1387,-0.3815
1.2217,0.1597,-0.3708
1.1983,0.1861,-0.3634
1.1729,0.2037,-0.3512
1.1523,0.2286,-0.3424
1.1333,0.2423,-0.338
1.1089,0.2481,-0.3371
1.0771,0.2589,-0.3346
1.038,0.2819,-0.3337
0.9975,0.2995,-0.3346
0.955,0.3053,-0.3346
0.9056,0.3146,-0.3288
0.8631,0.3268,-0.3293
0.8299,0.3317,-0.3263
0.7923,0.3307,-0.3219
0.7556,0.3302,-0.3141
0.7297,0.3302,-0.3102
0.7058,0.3268,-0.3058
0.6872,0.3185,-0.3053
0.6682,0.3131,-0.3004
0.654,0.3014,-0.2999
0.6501,0.2936,-0.2931
0.6467,0.2785,-0.2852
0.6476,0.2638,-0.2774
0.6564,0.2437,-0.2769
0.6628,0.2266,-0.2657
0.6691,0.2042,-0.2535
0.6779,0.1783,-0.2413
0.6804,0.1548,-0.2325
0.6892,0.127,-0.2183
0.695,0.1021,-0.208
0.7072,0.084,-0.1997
0.7204,0.0645,-0.1861
0.7258,0.0473,-0.1763
0.7307,0.0317,-0.1748
0.7429,0.0156,-0.1665
0.7527,0.0048,-0.1538
0.759,-0.0089,-0.1406
0.7678,-0.0215,-0.1284
0.7791,-0.0357,-0.1133
0.7908,-0.0396,-0.0976
0.803,-0.0382,-0.08
0.8206,-0.0455,-0.0683
0.8474,-0.0494,-0.0546
0.8651,-0.0489,-0.0439
0.8836,-0.0469,-0.0331
0.9061,-0.0362,-0.0268
0.9305,-0.0318,-0.0112
0.9599,-0.024,-0.0053
0.9887,-0.0152,-0.0014
1.0102,-0.001,0.0031
1.0297,0.0175,0.005
1.0561,0.0336,0.0079
1.0781,0.0458,0.0089
1.102,0.0606,0.0084
1.1216,0.0689,0.0089
1.1313,0.0796,0.006
1.1387,0.0894,-0.0029
1.1475,0.1021,-0.0146
1.1543,0.1074,-0.0288
1.1572,0.124,-0.0361
1.1597,0.1289,-0.0444
1.1665,0.1382,-0.0541
1.169,0.1455,-0.0644
1.1734,0.1475,-0.0786
1.1797,0.1627,-0.0932
1.1768,0.171,-0.1138
1.1783,0.169,-0.1304
1.1807,0.1768,-0.1445
1.1758,0.1807,-0.166
1.1724,0.1837,-0.1797
1.1675,0.1866,-0.1934
1.1626,0.1876,-0.2119
1.1577,0.1812,-0.2135
1.1494,0.1827,-0.2188
1.1343,0.1827,-0.2306
1.1182,0.1778,-0.2291
1.1011,0.1759,-0.2262
1.083,0.1744,-0.2218
1.0585,0.1744,-0.2183
1.0297,0.17,-0.2066
1.0068,0.1637,-0.1973
0.9779,0.1602,-0.1831
0.953,0.1568,-0.169
0.9281,0.1528,-0.1519
0.8963,0.1528,-0.1323
0.87,0.1475,-0.1196
0.849,0.1499,-0.103
0.8274,0.147,-0.079
0.8089,0.1402,-0.0654
0.7879,0.1455,-0.0512
0.7678,0.1441,-0.04
0.7493,0.1421,-0.0278
0.7302,0.1465,-0.017
0.7106,0.145,-0.0078
0.6877,0.1436,-0.0048
0.6623,0.1445,-0.0029
0.6413,0.145,0.0031
0.6173,0.1445,0.0079
0.5905,0.1441,0.005
0.5597,0.1377,0.005
0.5338,0.1426,-0.0024
0.5074,0.146,0.0001
0.4903,0.148,0.0001
0.4732,0.147,-0.0038
0.4556,0.1485,-0.0058
0.439,0.1509,-0.0117
0.4228,0.1494,-0.0195
0.4131,0.147,-0.0209
0.3994,0.1509,-0.0292
0.3935,0.1509,-0.0395
0.3852,0.1489,-0.0493
0.3808,0.145,-0.0527
0.3764,0.146,-0.0615
0.3701,0.1441,-0.0668
0.3725,0.1436,-0.0722
0.3808,0.1387,-0.0795
0.3803,0.1358,-0.0878
0.3891,0.1343,-0.0903
0.397,0.1323,-0.0908
0.4136,0.1314,-0.0976
0.4346,0.1289,-0.0991
0.4551,0.1284,-0.1025
0.4776,0.1314,-0.1015
0.5025,0.1304,-0.1025
0.5274,0.1294,-0.1054
0.5533,0.1314,-0.0952
0.5792,0.1392,-0.0937
0.6012,0.1431,-0.0854
0.6237,0.1455,-0.0795
0.6516,0.1533,-0.0712
0.6789,0.1577,-0.0649
0.7004,0.1622,-0.0615
0.7204,0.1715,-0.0532
0.7434,0.1778,-0.0483
0.7634,0.1905,-0.0478
0.7874,0.1944,-0.0454
0.8113,0.1998,-0.0434
0.8323,0.2086,-0.0512
0.8573,0.2144,-0.0463
0.8817,0.2237,-0.0546
0.909,0.2335,-0.0561
0.9305,0.2364,-0.0605
0.9544,0.2389,-0.0707
0.9814,0.2457,-0.0747
1.0092,0.2545,-0.082
1.0312,0.2584,-0.0903
1.0551,0.2633,-0.0981
1.0854,0.2692,-0.1089
1.1089,0.2741,-0.1196
1.1304,0.279,-0.1265
1.1592,0.2873,-0.1358
1.1812,0.2882,-0.1411
1.2022,0.2951,-0.1528
1.2261,0.299,-0.1602
1.2462,0.297,-0.1704
1.2676,0.3009,-0.1792
1.2843,0.3073,-0.1831
1.299,0.3112,-0.1851
1.3209,0.3117,-0.1821
1.3346,0.3141,-0.1851
1.3541,0.317,-0.1856
1.3683,0.321,-0.1812
1.3786,0.317,-0.1802
1.3811,0.3161,-0.1763
1.383,0.3146,-0.1782
1.382,0.3087,-0.1768
1.384,0.3097,-0.1738
1.3825,0.3078,-0.1636
1.3801,0.2995,-0.1553
1.379,0.2956,-0.1509
1.3732,0.2917,-0.1475
1.3698,0.2887,-0.1489
1.36,0.278,-0.147
1.3483,0.2736,-0.1445
1.3444,0.2682,-0.1441
1.341,0.2608,-0.1411
1.3336,0.253,-0.1387
1.3278,0.2408,-0.1309
1.3224,0.232,-0.1323
1.3165,0.2218,-0.1255
1.3087,0.2125,-0.1265
1.3073,0.2071,-0.126
1.3048,0.1939,-0.1192
1.2965,0.1842,-0.1152
1.2946,0.1739,-0.1123
1.2926,0.1661,-0.1069
1.2858,0.1572,-0.0986
1.2907,0.1509,-0.0937
1.2902,0.1441,-0.0834
1.2853,0.1362,-0.0795
1.2863,0.1265,-0.0693
1.2838,0.1201,-0.0683
1.2902,0.1055,-0.0761
1.2848,0.0864,-0.0913
1.2736,0.0728,-0.1128
1.2447,0.0693,-0.145
1.2247,0.0767,-0.1782
1.2066,0.0864,-0.2036
1.1793,0.0874,-0.2262
1.1548,0.0884,-0.2423
1.1333,0.0967,-0.252
1.1245,0.1074,-0.2481
1.1162,0.1167,-0.2349
1.1157,0.125,-0.2208
1.1201,0.1411,-0.2022
1.1221,0.1548,-0.1953
1.123,0.1866,-0.1948
1.1279,0.2335,-0.2188
1.1348,0.2755,-0.2486
1.1382,0.3239,-0.2828
1.1494,0.3683,-0.3145
1.1587,0.4114,-0.3483
1.1719,0.446,-0.3752
1.192,0.4714,-0.3947
1.2081,0.49,-0.4137
1.2335,0.5076,-0.4201
1.2676,0.5145,-0.428
1.3058,0.5189,-0.4397
1.3512,0.5198,-0.4538
1.4001,0.5052,-0.4753
1.4411,0.4573,-0.53
1.4475,0.3019,-0.6282
1.4876,0.2887,-0.6498
1.5296,0.3063,-0.6659
1.5701,0.3004,-0.7142
1.6112,0.2946,-0.7539
1.6517,0.2863,-0.7851
1.6908,0.2785,-0.8125
1.7211,0.2711,-0.8383
1.7416,0.2603,-0.8584
1.7514,0.2491,-0.8716
1.7485,0.2379,-0.8843
1.7372,0.2262,-0.8892
1.7074,0.2154,-0.8907
1.6454,0.1759,-0.9082
1.5711,0.1162,-0.9209
1.4954,0.0669,-0.9097
1.4157,0.0361,-0.899
1.3356,0.0063,-0.8877
1.2545,-0.022,-0.8648
1.17,-0.0474,-0.8364
1.0928,-0.069,-0.8037
1.0151,-0.0875,-0.7675
0.9437,-0.1036,-0.7304
0.8934,-0.1105,-0.6752
0.8612,-0.1046,-0.616
0.8211,-0.1339,-0.5628
0.7713,-0.1408,-0.5046
0.7185,-0.1227,-0.4382
0.6818,-0.0983,-0.3776
0.6423,-0.0953,-0.3307
0.6022,-0.0963,-0.2896
0.5592,-0.1027,-0.2511
0.5254,-0.111,-0.2135
0.4976,-0.1173,-0.1724
0.4747,-0.1315,-0.1275
0.4512,-0.1398,-0.0869
0.4405,-0.1496,-0.0502
0.4371,-0.1539,-0.0219
0.4292,-0.1652,0.0148
0.4292,-0.1726,0.0475
0.4346,-0.1745,0.0748
0.4444,-0.1828,0.1046
0.4664,-0.1843,0.1311
0.4888,-0.177,0.1535
0.521,-0.1774,0.1687
0.5709,-0.1559,0.195
0.6193,-0.1149,0.2185
0.6657,-0.0841,0.2259
0.7141,-0.0626,0.2254
0.7649,-0.0406,0.2278
0.8098,-0.0113,0.22
0.849,0.0082,0.2117
0.8841,0.0273,0.1941
0.9032,0.0493,0.1662
0.9217,0.061,0.133
0.9427,0.0747,0.0939
0.951,0.0825,0.0543
0.9652,0.0864,0.0192
0.9775,0.0845,-0.0131
0.9945,0.0835,-0.0405
1.0141,0.0791,-0.0683
1.0302,0.0669,-0.0947
1.0444,0.0591,-0.1201
1.0659,0.0473,-0.1421
1.0791,0.0395,-0.1695
1.0913,0.0395,-0.1914
1.1245,0.0331,-0.1968
1.1475,0.0112,-0.2119
1.1645,0.0058,-0.2271
1.1837,-0.0005,-0.2403
1.1915,-0.0079,-0.254
1.2042,-0.0074,-0.2686
1.2193,-0.0113,-0.2799
1.233,-0.0152,-0.2877
1.2413,-0.0142,-0.3004
1.2515,-0.0172,-0.3058
1.2579,-0.0167,-0.3092
1.2652,-0.0181,-0.3185
1.2765,-0.023,-0.3234
1.2872,-0.0225,-0.3268
1.2911,-0.0206,-0.3278
1.2955,-0.0191,-0.3268
1.3043,-0.0123,-0.3302
1.3102,-0.0084,-0.3288
1.3073,-0.0035,-0.32
1.3131,0.0019,-0.316
1.318,0.0053,-0.3077
1.3185,0.0131,-0.2975
1.3204,0.0175,-0.2877
1.3073,0.0307,-0.2735
1.2955,0.0375,-0.2599
1.2838,0.0395,-0.2476
1.2706,0.0458,-0.2291
1.2564,0.0488,-0.2154
1.234,0.0532,-0.2017
1.2056,0.0512,-0.1934
1.1793,0.0522,-0.1831
1.145,0.0463,-0.1734
1.1108,0.0385,-0.1651
1.0757,0.0361,-0.1572
1.0405,0.0346,-0.1514
1.0107,0.0288,-0.1387
0.977,0.0248,-0.1284
0.9398,0.0258,-0.1177
0.9115,0.0244,-0.1049
0.8836,0.0219,-0.1025
0.8597,0.02,-0.0849
0.8362,0.0185,-0.0771
0.8074,0.0146,-0.0659
0.7825,0.0097,-0.0585
0.7595,0.0063,-0.0507
0.738,0.0034,-0.0439
0.7131,0.0024,-0.0366
0.6872,0.0034,-0.0248
0.6662,-0.0045,-0.0195
0.6481,-0.0128,-0.0195
0.6154,-0.0084,-0.0219
0.589,-0.0054,-0.0229
0.5646,-0.0069,-0.0156
0.547,-0.0059,-0.0131
0.523,-0.0054,-0.0141
0.501,-0.001,-0.0156
0.4844,0.0009,-0.0141
0.4688,0.0009,-0.0126
0.4561,0.0019,-0.0131
0.4473,-0.0001,-0.0126
0.4366,0.0053,-0.0117
0.4233,0.0063,-0.0107
0.4223,0.0078,-0.0112
0.4165,0.0112,-0.0136
0.4111,0.0121,-0.018
0.4101,0.0165,-0.0219
0.416,0.0165,-0.0292
0.4155,0.0239,-0.0307
0.4209,0.0248,-0.0361
0.4297,0.0248,-0.0405
0.44,0.0307,-0.0454
0.4458,0.0331,-0.0537
0.4585,0.0361,-0.0585
0.4712,0.04,-0.061
0.4878,0.0429,-0.0639
0.5035,0.0449,-0.0727
0.521,0.0532,-0.079
0.5387,0.0562,-0.083
0.5607,0.0483,-0.0878
0.5817,0.0468,-0.0961
0.5934,0.0439,-0.1035
0.6158,0.0307,-0.1084
0.6379,0.017,-0.1152
0.6574,0.0078,-0.1226
0.6799,-0.0064,-0.1265
0.6994,-0.0294,-0.1279
0.7214,-0.0484,-0.1275
0.7326,-0.0607,-0.1348
0.7615,-0.0739,-0.1358
0.7781,-0.0988,-0.1377
0.7962,-0.1217,-0.1421
0.805,-0.1393,-0.1436
0.8157,-0.1515,-0.145
0.8294,-0.1701,-0.1489
0.8406,-0.1897,-0.145
0.8573,-0.2024,-0.1358
0.8817,-0.2277,-0.1221
0.8934,-0.2556,-0.1069
0.9085,-0.2732,-0.101
0.9193,-0.2923,-0.0913
0.9349,-0.3064,-0.0751
0.9422,-0.3216,-0.0585
0.953,-0.3406,-0.0434
0.9643,-0.3494,-0.0239
0.9599,-0.3597,-0.0043
0.9594,-0.3724,0.0123
0.9584,-0.3744,0.0294
0.956,-0.3778,0.046
0.9481,-0.3684,0.0592
0.9432,-0.3597,0.0802
0.9344,-0.3426,0.0929
0.9256,-0.3216,0.1036
0.9178,-0.2893,0.1198
0.9154,-0.2561,0.1369
0.9134,-0.2077,0.1491
0.9178,-0.1638,0.1579
0.9188,-0.1207,0.1682
0.91,-0.0768,0.1745
0.8949,-0.0367,0.1682
0.8778,0.0082,0.1677
0.8631,0.0478,0.1633
0.8455,0.0928,0.1569
0.8206,0.1358,0.1667
0.8006,0.169,0.1701
0.7864,0.2017,0.1652
0.7776,0.2359,0.1648
0.7698,0.2628,0.1652
0.7727,0.2858,0.1643
0.7805,0.3078,0.1628
0.7947,0.3219,0.156
0.8152,0.3337,0.1535
0.8421,0.3439,0.1516
0.8812,0.3493,0.1477
0.9217,0.3547,0.1511
0.9662,0.3517,0.1594
1.0155,0.3498,0.1648
1.0644,0.3532,0.1657
1.1094,0.3498,0.176
1.1421,0.3566,0.1745
1.1773,0.3532,0.1696
1.2105,0.3537,0.1648
1.2388,0.3561,0.1584
1.2501,0.3547,0.1447
1.2647,0.3459,0.1301
1.2701,0.3522,0.1198
1.2686,0.3444,0.1052
1.2657,0.3341,0.0934
1.2554,0.3337,0.0836
1.2535,0.3302,0.0851
1.2476,0.3254,0.0861
1.2393,0.317,0.0929
1.2349,0.3044,0.1071
1.2242,0.2907,0.1208
1.2095,0.2642,0.1379
1.2032,0.2398,0.1472
1.2022,0.2223,0.1564
1.209,0.1915,0.1638
1.2203,0.1651,0.1672
1.2379,0.1377,0.1706
1.2579,0.1182,0.1691
1.2828,0.0938,0.1628
1.3107,0.0693,0.155
1.3361,0.0517,0.1477
1.3629,0.0366,0.1345
1.3972,0.0214,0.1179
1.4353,0.0195,0.1076
1.4895,0.0112,0.1164
1.5213,-0.0137,0.1154
1.5384,-0.024,0.0934
1.5486,-0.025,0.0758
1.552,-0.0215,0.0534
1.5579,-0.0113,0.0221
1.5725,-0.0074,-0.0009
1.5769,-0.004,-0.0302
1.5921,0.0112,-0.0595
1.5956,0.0185,-0.0966
1.598,0.0331,-0.1328
1.598,0.0458,-0.1704
1.5877,0.0718,-0.2085
1.5784,0.0908,-0.2511
1.553,0.1143,-0.3009
1.5252,0.1299,-0.3556
1.4993,0.1362,-0.4137
1.4665,0.1216,-0.4724
1.4318,0.0933,-0.5335
1.406,0.0654,-0.5858
1.3649,0.0385,-0.6434
1.318,0.0107,-0.7074
1.2652,-0.0176,-0.7832
1.2178,-0.0313,-0.8531
1.1631,-0.0211,-0.9121
1.1069,-0.0186,-0.9708
1.0605,-0.0142,-1.0128
1.0146,-0.0172,-1.047
0.977,-0.0333,-1.0705
0.954,-0.0568,-1.0812
0.9334,-0.0812,-1.0842
0.9222,-0.11,-1.0866
0.9159,-0.1334,-1.0846
0.9198,-0.1461,-1.0827
0.9271,-0.15,-1.0676
0.9232,-0.151,-1.0504
0.9154,-0.1393,-1.0172
0.9159,-0.111,-0.9674
0.9159,-0.0651,-0.9004
0.9154,-0.0064,-0.8247
0.9095,0.0693,-0.7343
0.9056,0.1455,-0.6381
0.9041,0.2281,-0.5438
0.9061,0.3063,-0.4499
0.9217,0.3782,-0.3615
0.9422,0.4416,-0.2774
0.975,0.4954,-0.2017
1.0116,0.5379,-0.1304
1.0317,0.5755,-0.0766
1.0517,0.6083,-0.0473
1.0679,0.6317,-0.0312
1.0727,0.6434,-0.0288
1.0732,0.6498,-0.0444
1.0713,0.6517,-0.0644
1.063,0.6542,-0.0888
1.059,0.6513,-0.1113
1.0517,0.6478,-0.1309
1.0287,0.6303,-0.1367
0.9877,0.5951,-0.1343
0.9349,0.5608,-0.1226
0.8968,0.5374,-0.0971
0.8705,0.5154,-0.0717
0.8274,0.4832,-0.0595
0.7937,0.4524,-0.0395
0.7678,0.4299,-0.0219
0.7547,0.4084,-0.0112
0.7517,0.3918,-0.0014
0.7532,0.3742,-0.0014
0.7483,0.3498,-0.0107
0.7424,0.3341,-0.0248
0.7375,0.3136,-0.0371
0.7316,0.2965,-0.0468
0.7243,0.279,-0.061
0.7277,0.2628,-0.0698
0.7321,0.2457,-0.0805
0.736,0.2218,-0.0898
0.7243,0.2086,-0.103
0.7287,0.2027,-0.1245
0.736,0.1939,-0.1362
0.7498,0.1798,-0.1504
0.7713,0.1671,-0.1675
0.7903,0.1548,-0.1782
0.8118,0.145,-0.1919
0.8406,0.1402,-0.2061
0.8685,0.1362,-0.2198
0.8939,0.1353,-0.2296
0.9164,0.1372,-0.2349
0.9408,0.1402,-0.2398
0.9692,0.148,-0.2403
0.995,0.1524,-0.2364
1.0224,0.1612,-0.2296
1.0439,0.1715,-0.2227
1.0654,0.1754,-0.2183
1.0786,0.1837,-0.2061
1.0849,0.1939,-0.1968
1.0933,0.2076,-0.1841
1.1045,0.2193,-0.1695
1.1055,0.2262,-0.1597
1.1079,0.2325,-0.1455
1.1094,0.2428,-0.124
1.102,0.253,-0.1157
1.1103,0.2555,-0.0991
1.1333,0.2589,-0.0742
1.1435,0.2785,-0.061
1.1431,0.3029,-0.0576
1.1352,0.3087,-0.0634
1.1255,0.3034,-0.0634
1.1172,0.3029,-0.06
1.124,0.3087,-0.0507
1.1269,0.3122,-0.0454
1.1299,0.3175,-0.0454
1.1279,0.32,-0.0527
1.1269,0.3156,-0.06
1.125,0.319,-0.0634
1.1221,0.3141,-0.0698
1.1323,0.3146,-0.0712
1.1357,0.3185,-0.0834
1.1309,0.3195,-0.0947
1.1255,0.3302,-0.1143
1.1177,0.3371,-0.1328
1.1079,0.3395,-0.1568
1.0962,0.3434,-0.1807
1.0845,0.3522,-0.2002
1.0659,0.3547,-0.2227
1.0409,0.3586,-0.2428
1.019,0.362,-0.2608
0.9921,0.3634,-0.2804
0.9735,0.3718,-0.2979
0.954,0.3718,-0.3116
0.9388,0.3791,-0.3263
0.9178,0.3821,-0.3341
0.9076,0.3825,-0.3424
0.8885,0.3869,-0.3493
0.8758,0.3952,-0.3537
0.8621,0.4006,-0.3639
0.8465,0.4001,-0.3605
0.8235,0.4016,-0.3659
0.8079,0.406,-0.3664
0.7815,0.4045,-0.3683
0.762,0.4026,-0.3678
0.736,0.4045,-0.359
0.7165,0.3943,-0.3522
0.6877,0.4031,-0.3561
0.6711,0.4128,-0.3395
0.6555,0.4109,-0.3234
0.6472,0.4055,-0.3116
0.6374,0.3991,-0.3014
0.6315,0.4006,-0.2906
0.6217,0.3923,-0.2833
0.6222,0.3879,-0.275
0.6217,0.384,-0.2652
0.6281,0.3713,-0.2525
0.6305,0.3639,-0.2452
0.6334,0.3537,-0.2364
0.6428,0.3439,-0.2227
0.6462,0.3341,-0.2164
0.6633,0.3268,-0.2051
0.673,0.319,-0.1958
0.6887,0.3127,-0.187
0.7043,0.2975,-0.1812
0.717,0.2907,-0.1773
0.7331,0.2843,-0.1685
0.7512,0.2726,-0.1719
0.7639,0.2618,-0.1651
0.7796,0.2511,-0.1655
0.7947,0.2413,-0.1738
0.8069,0.232,-0.1675
0.8167,0.2169,-0.1631
0.8269,0.21,-0.167
0.8377,0.1993,-0.166
0.8386,0.1847,-0.166
0.8416,0.1763,-0.169
0.8465,0.1661,-0.1577
0.8534,0.1558,-0.1582
0.8568,0.1411,-0.1528
0.8607,0.1358,-0.1489
0.8685,0.1265,-0.1543
0.8748,0.1143,-0.1475
0.8851,0.1055,-0.1485
0.8958,0.0996,-0.1455
0.9056,0.0928,-0.1402
0.9183,0.0884,-0.1362
0.9325,0.083,-0.1304
0.9398,0.082,-0.1255
0.95,0.0732,-0.1216
0.9682,0.0752,-0.1113
0.9755,0.0742,-0.1064
0.9789,0.0713,-0.1059
0.9872,0.0747,-0.0981
0.9902,0.0816,-0.0903
0.9936,0.0825,-0.0849
0.9911,0.0845,-0.08
0.9877,0.0899,-0.0751
0.9833,0.0962,-0.061
0.9779,0.1025,-0.0561
0.9731,0.1128,-0.0473
0.9657,0.1255,-0.0341
0.9599,0.1299,-0.0278
0.953,0.1416,-0.0136
0.9393,0.1553,-0.0068
0.9217,0.1622,-0.0043
0.9041,0.1676,0.0006
0.8846,0.1793,0.0016
0.8665,0.1886,0.005
0.8474,0.1988,0.007
0.8289,0.2061,0.0089
0.8157,0.2154,0.0099
0.8084,0.2252,0.006
0.7927,0.2349,0.0035
0.7776,0.2447,-0.0004
0.7634,0.2491,-0.0009
0.7512,0.2569,-0.0053
0.736,0.2633,-0.0053
0.7243,0.2721,-0.0048
0.7146,0.279,-0.0043
0.7067,0.2897,-0.0058
0.7023,0.2951,-0.0087
0.6994,0.3019,-0.0097
0.6965,0.3141,-0.0068
0.6994,0.3156,-0.0136
0.6979,0.3244,-0.0161
0.7048,0.3337,-0.018
0.7111,0.3366,-0.0209
0.715,0.3429,-0.0273
0.7321,0.3473,-0.0312
0.7395,0.3488,-0.0375
0.7542,0.359,-0.0351
0.759,0.363,-0.0405
0.7634,0.3639,-0.0468
0.7752,0.3718,-0.0488
0.7825,0.3718,-0.0463
0.7864,0.3767,-0.0444
0.7976,0.3772,-0.0414
0.8074,0.3801,-0.0439
0.8157,0.3786,-0.0385
0.8201,0.3747,-0.0341
0.8303,0.3738,-0.0317
0.8401,0.3703,-0.0292
0.8455,0.3639,-0.0234
0.8621,0.3561,-0.0204
0.8797,0.3463,-0.0185
0.8973,0.3463,-0.0175
0.9149,0.341,-0.0117
0.9281,0.3293,-0.0121
0.9408,0.3234,-0.0121
0.952,0.3185,-0.0082
0.9775,0.3004,-0.0024
0.9882,0.2838,0.0006
0.997,0.2751,0.0045
1.0087,0.2628,0.007
1.0243,0.254,0.0182
1.0321,0.2457,0.0211
1.0375,0.2374,0.0255
1.04,0.2364,0.0333
1.0463,0.2354,0.0358
1.0488,0.2301,0.0367
1.0566,0.2242,0.0392
1.0595,0.2276,0.0407
1.0654,0.2237,0.047
1.0683,0.2232,0.0656
1.0786,0.2271,0.0773
1.0928,0.2281,0.088
1.0996,0.2349,0.1032
1.1157,0.2408,0.1135
1.1333,0.254,0.1257
1.1455,0.2642,0.1315
1.1572,0.2765,0.1374
1.165,0.2848,0.1384
1.167,0.2931,0.1374
1.1641,0.3034,0.1403
1.1548,0.3083,0.1408
1.1509,0.3185,0.1433
1.144,0.3214,0.1447
1.1357,0.3254,0.1457
1.1299,0.3327,0.1496
1.1186,0.3341,0.1457
1.1069,0.3341,0.1452
1.0981,0.3376,0.1477
1.0879,0.339,0.1447
1.082,0.3449,0.1457
1.0703,0.3449,0.1394
1.0635,0.341,0.1423
1.0585,0.3454,0.1423
1.0585,0.3434,0.1442
1.0571,0.3468,0.1496
1.0546,0.3395,0.155
1.0522,0.339,0.155
1.0453,0.3366,0.1613
1.0405,0.3302,0.1696
1.037,0.3219,0.1789
1.0365,0.3107,0.1867
1.0297,0.3058,0.195
1.0214,0.299,0.2009
1.0141,0.2873,0.2107
1.0043,0.276,0.2117
0.9916,0.2647,0.2156
0.9809,0.255,0.2229
0.9667,0.2437,0.2273
0.9525,0.231,0.2361
0.9354,0.2193,0.2395
0.9207,0.2076,0.2439
0.9022,0.1978,0.2512
0.8836,0.1842,0.2591
0.8612,0.1832,0.2566
0.8435,0.1773,0.262
0.8225,0.1695,0.2615
0.803,0.1597,0.2639
0.7879,0.1553,0.262
0.7727,0.1519,0.262
0.7556,0.1397,0.2674
0.7459,0.127,0.2703
0.7444,0.1201,0.2757
0.7439,0.1104,0.2801
0.7517,0.0991,0.284
0.7669,0.084,0.2893
0.784,0.0713,0.2971
0.8084,0.0571,0.2991
0.8421,0.039,0.2991
0.8924,0.0283,0.3015
0.954,0.0175,0.305
1.0141,0.0063,0.2971
1.0698,-0.0064,0.2952
1.1313,-0.0142,0.2942
1.1929,-0.0328,0.2928
1.2496,-0.043,0.2903
1.3161,-0.0079,0.3035
1.4216,-0.0504,0.3382
1.467,-0.0914,0.3353
1.5027,-0.0919,0.328
1.5349,-0.0953,0.3221
1.5608,-0.1032,0.3011
1.5823,-0.109,0.2732
1.596,-0.1173,0.2537
1.5975,-0.1251,0.2298
1.5931,-0.1276,0.1999
1.5755,-0.1295,0.1711
1.5555,-0.13,0.1311
1.5227,-0.1339,0.0973
1.4881,-0.1325,0.0617
1.4401,-0.1315,0.0221
1.3869,-0.1325,-0.0043
1.3258,-0.1281,-0.0331
1.2584,-0.1237,-0.0615
1.1915,-0.1124,-0.0825
1.126,-0.1017,-0.1059
1.0683,-0.0792,-0.1226
1.0268,-0.0631,-0.1445
0.9853,-0.0421,-0.1572
0.9398,-0.0108,-0.1782
0.8885,0.0214,-0.1997
0.8416,0.0566,-0.2242
0.7898,0.0918,-0.2452
0.7395,0.1323,-0.2711
0.6926,0.1641,-0.3028
0.6232,0.1939,-0.3351
0.5367,0.254,-0.3874
0.482,0.3048,-0.4176
0.4356,0.3468,-0.4499
0.3999,0.3923,-0.4778
0.3706,0.4319,-0.5027
0.3618,0.4778,-0.5261
0.3672,0.5135,-0.5521
0.4512,0.4753,-0.5789
0.5191,0.4402,-0.575
0.5465,0.4709,-0.6024
0.6144,0.4753,-0.6365
0.6735,0.4861,-0.6806
0.7282,0.5032,-0.7279
0.781,0.5335,-0.7783
0.8426,0.5545,-0.8247
0.9032,0.5667,-0.8706
0.9565,0.5985,-0.9141
1.0053,0.6298,-0.9571
1.0522,0.6586,-0.985
1.1172,0.684,-1.005
1.1983,0.7036,-1.0118
1.2765,0.7207,-0.9977
1.3595,0.7475,-0.9591
1.4431,0.771,-0.9073
1.5144,0.7817,-0.856
1.5745,0.7827,-0.8203
1.6097,0.7685,-0.7807
1.6366,0.7402,-0.748
1.6444,0.6992,-0.7206
1.6449,0.6615,-0.6976
1.6322,0.6166,-0.6722
1.6117,0.5657,-0.6434
1.5882,0.492,-0.619
1.5657,0.4128,-0.5804
1.5462,0.3454,-0.5149
1.5262,0.2892,-0.4431
1.4983,0.2384,-0.3688
1.467,0.1866,-0.2994
1.4235,0.1421,-0.2262
1.3796,0.1089,-0.1592
1.3331,0.0811,-0.0961
1.2799,0.063,-0.0483
1.2247,0.0576,-0.0073
1.166,0.0591,0.0226
1.1128,0.0557,0.0455
1.0718,0.0557,0.0612
1.0312,0.0571,0.068
0.9897,0.0615,0.0641
0.9544,0.0684,0.0509
0.9237,0.0737,0.0314
0.8939,0.0796,0.0055
0.868,0.0869,-0.0288
0.843,0.0942,-0.0659
0.8235,0.0982,-0.1099
0.8113,0.1089,-0.1543
0.8167,0.1338,-0.2007
0.8245,0.1607,-0.2428
0.8352,0.1871,-0.2862
0.8426,0.2003,-0.3283
0.8469,0.2135,-0.363
0.8421,0.2262,-0.4035
0.8362,0.234,-0.4348
0.8279,0.2491,-0.4587
0.8323,0.2663,-0.4753
0.843,0.2775,-0.489
0.8602,0.2897,-0.4914
0.8792,0.3,-0.4812
0.8944,0.3044,-0.469
0.9203,0.3097,-0.4529
0.9388,0.3146,-0.4314
0.9584,0.3229,-0.4079
0.974,0.3312,-0.381
0.9848,0.3385,-0.3542
0.9975,0.341,-0.3293
1.0033,0.3478,-0.3067
1.0082,0.3571,-0.2872
1.0151,0.361,-0.2682
1.0151,0.363,-0.2535
1.0195,0.3708,-0.2369
1.0234,0.3742,-0.2281
1.0243,0.3708,-0.2223
1.0312,0.3703,-0.2188
1.037,0.3644,-0.2144
1.0453,0.3571,-0.2119
1.0546,0.3547,-0.2169
1.062,0.3517,-0.2144
1.0727,0.3459,-0.2213
1.082,0.3415,-0.2257
1.0854,0.3366,-0.2325
1.0918,0.3288,-0.2423
1.104,0.3249,-0.253
1.1128,0.3063,-0.2642
1.1182,0.2965,-0.2765
1.126,0.2819,-0.2867
1.1279,0.2672,-0.2984
1.1343,0.254,-0.3087
1.1392,0.2354,-0.3185
1.1392,0.2183,-0.3249
1.1435,0.193,-0.3337
1.1543,0.1666,-0.3278
1.1597,0.1328,-0.3219
1.1572,0.0957,-0.3332
1.1465,0.0562,-0.3244
1.1338,0.0102,-0.3077
1.1221,-0.0264,-0.2877
1.1191,-0.0568,-0.2647
1.1094,-0.0729,-0.2354
1.1157,-0.109,-0.2095
1.1211,-0.1359,-0.1792
1.1284,-0.1549,-0.1421
1.1352,-0.1672,-0.1133
1.1226,-0.1383,-0.0742
1.104,-0.0827,-0.0424
1.1177,-0.1076,-0.0175
1.1269,-0.1266,0.0109
1.1294,-0.1369,0.0304
1.1362,-0.1461,0.0514
1.145,-0.1505,0.0753
1.1533,-0.1613,0.0919
1.1567,-0.1643,0.1062
1.1533,-0.1662,0.114
1.1509,-0.1701,0.1213
1.1489,-0.1731,0.1301
1.144,-0.176,0.1413
1.146,-0.1843,0.1491
1.1484,-0.2019,0.1599
1.1523,-0.215,0.1687
1.1523,-0.2273,0.1682
1.1484,-0.24,0.1711
1.1509,-0.238,0.1706
1.165,-0.2111,0.1799
1.1797,-0.1936,0.1862
1.1763,-0.175,0.1853
1.1749,-0.1608,0.1789
1.1587,-0.153,0.175
1.1411,-0.1403,0.1657
1.123,-0.1325,0.1535
1.0986,-0.1256,0.1423
1.0742,-0.1193,0.1306
1.0561,-0.1203,0.1223
1.0317,-0.1207,0.1184
1.016,-0.1198,0.113
0.9902,-0.1222,0.1062
0.9745,-0.1222,0.1071
0.953,-0.1212,0.1091
0.9344,-0.1246,0.1071
0.9085,-0.1237,0.1105
0.8875,-0.1198,0.1125
0.869,-0.1134,0.1135
0.843,-0.1095,0.1208
0.8235,-0.1051,0.1267
0.8079,-0.0988,0.1355
0.7879,-0.087,0.1428
0.7649,-0.069,0.1589
0.7566,-0.0538,0.1696
0.7517,-0.0401,0.1789
0.7503,-0.0289,0.1892
0.7488,-0.0113,0.1975
0.7488,0.0068,0.2077
0.7512,0.0224,0.2156
0.759,0.041,0.2205
0.7708,0.0547,0.2278
0.7757,0.0723,0.2273
0.7815,0.0884,0.2239
0.7913,0.1065,0.2263
0.7986,0.1216,0.2234
0.8123,0.1377,0.2136
0.825,0.1558,0.2072
0.8372,0.1749,0.196
0.8524,0.1895,0.1853
0.8636,0.2076,0.1701
0.8817,0.2281,0.1545
0.8929,0.2476,0.1394
0.9032,0.2677,0.1311
0.9183,0.2848,0.1174
0.9364,0.3048,0.1066
0.95,0.3229,0.0993
0.9657,0.3439,0.0924
0.9779,0.3673,0.0841
0.9975,0.3894,0.0778
1.0116,0.4109,0.0709
1.0243,0.4372,0.067
1.0365,0.4607,0.0626
1.0488,0.4896,0.0582
1.0635,0.5115,0.0573
1.0786,0.5355,0.0568
1.0898,0.5628,0.0543
1.1016,0.5922,0.0509
1.123,0.6097,0.0577
1.1377,0.6083,0.0592
1.1396,0.6337,0.0621
1.1435,0.6664,0.0753
1.1548,0.6801,0.0895
1.168,0.6835,0.1096
1.1832,0.6904,0.1296
1.1949,0.6928,0.1525
1.2047,0.6918,0.1765
1.2134,0.6899,0.195
1.2178,0.6874,0.2171
1.2237,0.6737,0.24
1.2266,0.6576,0.2595
1.2344,0.6395,0.2786
1.2359,0.6097,0.303
1.2398,0.5853,0.3241
1.2466,0.5452,0.346
1.2291,0.5042,0.3583
1.2144,0.4665,0.3749
1.2042,0.4265,0.388
1.1983,0.3899,0.3988
1.1954,0.3537,0.4086
1.2042,0.3175,0.4183
1.2164,0.2843,0.4227
1.2325,0.2437,0.4306
1.2564,0.2076,0.4286
1.2789,0.1705,0.4242
1.3058,0.1299,0.4237
1.3331,0.0933,0.4159
1.36,0.063,0.4042
1.3781,0.0497,0.3915
1.4069,0.0121,0.3807
1.4177,-0.0391,0.3587
1.4104,-0.0651,0.328
1.3903,-0.0841,0.2864
1.3639,-0.1076,0.2444
1.3287,-0.1325,0.2112
1.2877,-0.1515,0.1735
1.2486,-0.1706,0.1379
1.2022,-0.1916,0.1154
1.1455,-0.2146,0.0905
1.0884,-0.236,0.0568
1.0365,-0.2419,0.0265
0.9613,-0.1931,0.0026
0.8949,-0.1222,-0.0239
0.8709,-0.1329,-0.0629
0.8534,-0.1422,-0.0947
0.8279,-0.1432,-0.1362
0.8054,-0.1471,-0.1826
0.7859,-0.1535,-0.2252
0.7644,-0.1608,-0.2662
0.7459,-0.175,-0.3058
0.7351,-0.1794,-0.3371
0.7194,-0.1931,-0.3664
0.7097,-0.2072,-0.3888
0.6979,-0.2258,-0.4035
0.6892,-0.2527,-0.4025
0.6931,-0.2805,-0.4035
0.7121,-0.3094,-0.3903
0.737,-0.3406,-0.3737
0.7717,-0.3655,-0.3615
0.8162,-0.3749,-0.3449
0.8739,-0.3758,-0.3322
0.9183,-0.2981,-0.3018
0.9535,-0.1217,-0.2769
0.9906,0.0029,-0.2706
1.0141,0.104,-0.2706
1.0522,0.172,-0.274
1.0419,0.169,-0.3111
1.0801,0.191,-0.3155
1.1289,0.2349,-0.3219
1.1665,0.2794,-0.3512
1.2086,0.3239,-0.3747
1.2442,0.3747,-0.3962
1.273,0.428,-0.4084
1.2887,0.5052,-0.3371
1.2887,0.5823,-0.2984
1.3112,0.6278,-0.3713
1.3502,0.6766,-0.4113
1.3859,0.7377,-0.4416
1.4108,0.7998,-0.4841
1.4284,0.8653,-0.5384
1.4372,0.9229,-0.5872
1.4343,0.9879,-0.6268
1.4104,1.0402,-0.66
1.3825,1.0759,-0.6849
1.3517,1.1042,-0.6986
1.3219,1.1164,-0.7045
1.2892,1.1135,-0.6879
1.2427,1.1164,-0.6615
1.1934,1.1071,-0.6238
1.1313,1.0895,-0.5726
1.0683,1.0588,-0.5163
1.0131,1.006,-0.4636
0.953,0.9439,-0.4035
0.8934,0.8697,-0.3439
0.8495,0.771,-0.2926
0.826,0.6561,-0.2364
0.8289,0.5423,-0.1611
0.867,0.4753,-0.0693
0.8719,0.4348,-0.0092
0.8651,0.3982,0.0363
0.8558,0.3605,0.0836
0.8504,0.3293,0.1213
0.8445,0.3019,0.1442
0.8386,0.2765,0.1535
0.8313,0.2555,0.1521
0.8211,0.2379,0.1481
0.8113,0.2237,0.1281
0.7991,0.2096,0.0988
0.7849,0.1939,0.0734
0.7669,0.1749,0.0431
0.7507,0.1637,0.0099
0.7385,0.1504,-0.017
0.7258,0.1338,-0.0395
0.7116,0.1172,-0.0624
0.7004,0.1045,-0.0927
0.6882,0.0884,-0.1196
0.6794,0.0781,-0.1436
0.6652,0.0767,-0.1729
0.6496,0.0801,-0.1924
0.6359,0.0874,-0.2036
0.6222,0.0903,-0.2144
0.6134,0.0996,-0.2188
0.6168,0.1035,-0.2183
0.6251,0.1143,-0.2188
0.6433,0.1358,-0.2056
0.6574,0.1558,-0.1973
0.6735,0.1749,-0.189
0.695,0.1861,-0.1841
0.7248,0.193,-0.1734
0.7605,0.1949,-0.1611
0.7937,0.1934,-0.1528
0.8347,0.2022,-0.1387
0.8866,0.212,-0.1182
0.9466,0.2125,-0.0932
0.9999,0.2066,-0.0737
1.0468,0.1978,-0.0507
1.082,0.1871,-0.0312
1.1118,0.1817,-0.0068
1.1333,0.17,0.007
1.1406,0.1617,0.0162
1.147,0.1504,0.026
1.1431,0.1372,0.0324
1.1352,0.1289,0.0348
1.1304,0.1231,0.0407
1.1191,0.1216,0.046
1.1059,0.1152,0.0514
1.1016,0.1128,0.048
1.0928,0.1084,0.0514
1.083,0.1094,0.045
1.0747,0.1084,0.0455
1.0683,0.1089,0.0372
1.058,0.1123,0.0289
1.0507,0.1123,0.0143
1.038,0.1157,-0.0004
1.0297,0.1187,-0.0121
1.0229,0.124,-0.0292
1.0092,0.1309,-0.0468
0.9941,0.1318,-0.061
0.975,0.1333,-0.0766
0.9677,0.1431,-0.0927
0.9643,0.1504,-0.1025
0.9613,0.1612,-0.1084
0.9565,0.1651,-0.1138
0.9555,0.172,-0.1192
0.9525,0.1842,-0.1235
0.9505,0.1959,-0.1226
0.9442,0.2003,-0.1192
0.9466,0.212,-0.1206
0.954,0.2179,-0.1162
0.9515,0.2281,-0.1109
0.9579,0.2374,-0.0991
0.9609,0.2398,-0.0937
0.9701,0.2423,-0.0903
0.9794,0.2447,-0.0805
0.9867,0.2486,-0.0717
0.998,0.2467,-0.0688
1.0043,0.2437,-0.059
1.0102,0.2398,-0.0507
1.0199,0.2369,-0.0439
1.0278,0.2286,-0.0375
1.0356,0.2203,-0.0292
1.0414,0.2135,-0.019
1.0453,0.2013,-0.0126
1.0522,0.193,-0.0058
1.058,0.1812,0.0016
1.063,0.172,0.006
1.0708,0.1582,0.0084
1.0771,0.148,0.0094
1.0762,0.1358,0.0138
1.0849,0.1255,0.0128
1.084,0.1123,0.0123
1.0913,0.1035,0.0123
1.0972,0.0991,0.0099
1.1016,0.0879,0.0089
1.1118,0.0772,0.0026
1.1186,0.0693,-0.0048
1.125,0.0664,-0.0082
1.144,0.0557,-0.017
1.1582,0.0424,-0.0302
1.1592,0.0361,-0.0439
1.1695,0.0273,-0.0541
1.1866,0.019,-0.0654
1.1944,0.017,-0.0751
1.2076,0.019,-0.0883
1.2208,0.0195,-0.1049
1.2349,0.0229,-0.1231
1.2476,0.0263,-0.147
1.2574,0.0331,-0.1743
1.2662,0.038,-0.1963
1.278,0.0458,-0.2135
1.296,0.0552,-0.2301
1.3141,0.064,-0.2374
1.3331,0.0693,-0.2476
1.3527,0.0806,-0.255
1.3688,0.0874,-0.2579
1.3903,0.1006,-0.2564
1.4001,0.1128,-0.2555
1.4045,0.1216,-0.2496
1.4192,0.1314,-0.2389
1.4192,0.1455,-0.2286
1.4182,0.1587,-0.2188
1.4138,0.1715,-0.2135
1.379,0.1837,-0.209
1.319,0.19,-0.2262
1.3317,0.2086,-0.2066
1.3268,0.2428,-0.1846
1.3253,0.2658,-0.1636
1.3278,0.2838,-0.1367
1.3283,0.3014,-0.1201
1.3195,0.3146,-0.0976
1.3121,0.3297,-0.083
1.3024,0.3454,-0.0717
