accx,accy,accz
0.7402,-0.0364,0.0222
0.7464,-0.0435,0.0281
0.7532,-0.0515,0.0322
0.7598,-0.0603,0.0349
0.7664,-0.0684,0.0374
0.7732,-0.0762,0.0408
0.7803,-0.084,0.0437
0.7876,-0.0916,0.0472
0.7947,-0.1014,0.0518
0.8021,-0.1109,0.0559
0.8104,-0.1187,0.0594
0.8189,-0.1239,0.0643
0.8267,-0.1263,0.0691
0.8341,-0.1273,0.0735
0.8414,-0.1266,0.0774
0.848,-0.1246,0.0816
0.8531,-0.1212,0.0858
0.8578,-0.117,0.0892
0.8619,-0.1126,0.0919
0.8666,-0.108,0.0943
0.8712,-0.1036,0.0953
0.8761,-0.0999,0.0945
0.8807,-0.0975,0.095
0.8841,-0.0958,0.0953
0.8871,-0.0945,0.0953
0.89,-0.0931,0.0965
0.892,-0.0921,0.0977
0.8946,-0.0909,0.0977
0.8971,-0.0894,0.0953
0.8981,-0.0887,0.0928
0.8993,-0.0894,0.0909
0.9005,-0.0892,0.0897
0.902,-0.0882,0.0889
0.9034,-0.0875,0.0916
0.9044,-0.087,0.0943
0.9047,-0.085,0.097
0.9052,-0.0833,0.0999
0.9059,-0.0823,0.1021
0.9071,-0.0804,0.1031
0.9076,-0.077,0.1026
0.9069,-0.0733,0.1024
0.9074,-0.0694,0.1024
0.91,-0.0652,0.1009
0.9137,-0.0611,0.0992
0.9171,-0.0577,0.0963
0.9205,-0.0545,0.0933
0.9252,-0.0506,0.0906
0.9303,-0.0469,0.087
0.9369,-0.0435,0.0831
0.9442,-0.0406,0.0796
0.9528,-0.0371,0.0779
0.9633,-0.0327,0.077
0.9743,-0.0281,0.0772
0.985,-0.0244,0.0787
0.9958,-0.0215,0.0809
1.007,-0.0183,0.0838
1.019,-0.0159,0.0887
1.0319,-0.0139,0.0938
1.0459,-0.012,0.0992
1.0608,-0.011,0.1065
1.0749,-0.0107,0.1146
1.0896,-0.0105,0.1219
1.1045,-0.0098,0.1275
1.1194,-0.0088,0.1331
1.1348,-0.0093,0.1402
1.1502,-0.0105,0.1485
1.1656,-0.0112,0.1583
1.181,-0.0122,0.1693
1.1959,-0.0125,0.1779
1.21,-0.0132,0.1859
1.2215,-0.0161,0.1935
1.2301,-0.0203,0.2025
1.2391,-0.0235,0.2118
1.2479,-0.0271,0.2201
1.2562,-0.032,0.2282
1.264,-0.0374,0.2358
1.2704,-0.0432,0.2416
1.2743,-0.0491,0.2465
1.2748,-0.0547,0.2509
1.2753,-0.0611,0.2548
1.2758,-0.0657,0.2597
1.2745,-0.0638,0.2665
1.2736,-0.0638,0.2734
1.2726,-0.0682,0.2753
1.2697,-0.0723,0.2744
1.265,-0.076,0.2753
1.2589,-0.0796,0.2761
1.2511,-0.0818,0.2768
1.2428,-0.0823,0.2775
1.2345,-0.0814,0.2766
1.2269,-0.0806,0.2722
1.2201,-0.0782,0.2643
1.2157,-0.0726,0.2555
1.2127,-0.0713,0.2426
1.2081,-0.0699,0.2262
1.2047,-0.0645,0.214
1.2008,-0.0638,0.2047
1.1978,-0.0684,0.1928
1.1932,-0.0745,0.1786
1.1866,-0.0784,0.1615
1.1785,-0.0809,0.1454
1.169,-0.0848,0.1283
1.159,-0.0875,0.1104
1.148,-0.0872,0.0938
1.1363,-0.0858,0.0765
1.1241,-0.0845,0.0579
1.1099,-0.0836,0.0381
1.094,-0.0809,0.0181
1.0808,-0.0772,0.0007
1.0725,-0.0752,-0.0134
1.0691,-0.074,-0.0254
1.0703,-0.0772,-0.0315
1.0759,-0.0836,-0.033
1.0874,-0.0928,-0.031
1.105,-0.1065,-0.0281
1.1267,-0.1217,-0.0254
1.1512,-0.1358,-0.0208
1.1788,-0.1498,-0.011
1.2103,-0.1632,0.0034
1.2455,-0.1749,0.0205
1.2797,-0.1849,0.0381
1.3117,-0.1923,0.0564
1.341,-0.1984,0.0743
1.3681,-0.2023,0.0914
1.3935,-0.2023,0.1085
1.4189,-0.2023,0.1187
1.4426,-0.2064,0.1204
1.4671,-0.2133,0.1165
1.4917,-0.2235,0.1094
1.512,-0.2326,0.0982
1.5323,-0.2399,0.0828
1.5535,-0.2472,0.0643
1.5743,-0.2568,0.0423
1.5929,-0.2643,0.0159
1.6088,-0.2668,-0.0142
1.6222,-0.267,-0.0437
1.6339,-0.2634,-0.0728
1.6434,-0.2563,-0.1011
1.6486,-0.2453,-0.129
1.6469,-0.2306,-0.1554
1.6369,-0.2143,-0.1796
1.6195,-0.1996,-0.1991
1.5951,-0.1857,-0.213
1.5662,-0.1737,-0.2228
1.5325,-0.1637,-0.2277
1.4954,-0.1534,-0.2299
1.4561,-0.1441,-0.2294
1.4148,-0.1349,-0.2279
1.3728,-0.1263,-0.2255
1.329,-0.1175,-0.2204
1.2853,-0.108,-0.2138
1.2423,-0.0997,-0.2069
1.2005,-0.0923,-0.1996
1.1607,-0.0853,-0.1915
1.1214,-0.0779,-0.1854
1.0828,-0.0699,-0.1818
1.0461,-0.0621,-0.1774
1.0122,-0.0552,-0.1742
0.9792,-0.0486,-0.1717
0.9469,-0.0415,-0.1698
0.9161,-0.0347,-0.1659
0.8898,-0.0288,-0.1615
0.867,-0.0227,-0.1583
0.8477,-0.0171,-0.1556
0.8294,-0.0127,-0.1527
0.8123,-0.0103,-0.15
0.7967,-0.0076,-0.1493
0.7828,-0.0032,-0.1502
0.7688,0.001,-0.152
0.7539,0.0046,-0.1539
0.74,0.0081,-0.1542
0.7278,0.012,-0.152
0.7168,0.0147,-0.1478
0.7075,0.0169,-0.1419
0.7004,0.021,-0.1361
0.696,0.0259,-0.13
0.6943,0.0303,-0.1222
0.6958,0.034,-0.1143
0.7014,0.0374,-0.1053
0.71,0.0406,-0.0965
0.7224,0.0413,-0.0887
0.7383,0.0391,-0.0814
0.7547,0.0362,-0.0757
0.7698,0.033,-0.0704
0.7847,0.0283,-0.066
0.7986,0.0237,-0.0621
0.8126,0.0191,-0.0584
0.8275,0.0144,-0.054
0.8414,0.0078,-0.0498
0.8558,0.0015,-0.0454
0.8705,-0.0051,-0.0403
0.8846,-0.012,-0.034
0.9054,-0.0235,-0.0249
0.9183,-0.031,-0.0186
0.9308,-0.0381,-0.0122
0.9433,-0.0452,-0.0051
0.956,-0.0518,0.0017
0.9672,-0.0579,0.0081
0.9772,-0.0652,0.0142
0.9877,-0.0723,0.0208
0.9977,-0.0792,0.0264
1.008,-0.0848,0.031
1.0183,-0.0901,0.0352
1.0266,-0.0955,0.0386
1.0337,-0.0999,0.0408
1.0398,-0.1038,0.042
1.0459,-0.108,0.0437
1.05,-0.1114,0.0447
1.0542,-0.1131,0.0445
1.0574,-0.1141,0.043
1.0591,-0.1146,0.0401
1.0603,-0.1148,0.0376
1.0622,-0.1156,0.0359
1.0637,-0.1151,0.0337
1.064,-0.1138,0.0313
1.0625,-0.1114,0.0281
1.0588,-0.1082,0.0242
1.0559,-0.1058,0.0217
1.0517,-0.1024,0.0208
1.0456,-0.0987,0.0186
1.0373,-0.0941,0.0173
1.028,-0.0882,0.0171
1.0188,-0.0823,0.0173
1.0092,-0.077,0.0169
0.9987,-0.0723,0.0156
0.987,-0.0679,0.0151
0.975,-0.063,0.0147
0.9623,-0.0581,0.0144
0.9494,-0.0542,0.0139
0.9367,-0.0501,0.0137
0.9249,-0.0454,0.0137
0.9132,-0.0406,0.0144
0.9003,-0.0357,0.0151
0.8878,-0.0303,0.0156
0.8761,-0.0257,0.0147
0.8646,-0.022,0.0122
0.8524,-0.0176,0.01
0.8414,-0.0127,0.0086
0.8302,-0.0088,0.0093
0.8179,-0.0049,0.011
0.8055,-0.0015,0.0144
0.7925,0.0005,0.0191
0.7784,0.0024,0.023
0.7649,0.0037,0.0264
0.7517,0.0049,0.031
0.7405,0.0044,0.0359
0.7297,0.0046,0.0401
0.7175,0.0034,0.043
0.7056,0.0005,0.0457
0.6958,-0.0056,0.0442
0.6863,-0.0103,0.0432
0.6758,-0.0142,0.0459
0.6655,-0.0213,0.0476
0.6567,-0.0254,0.0498
0.6489,-0.0266,0.0542
0.6415,-0.0274,0.0601
0.6354,-0.0283,0.066
0.6313,-0.0303,0.0699
0.6291,-0.0325,0.0735
0.6293,-0.0376,0.0757
0.6301,-0.0442,0.0762
0.6306,-0.0484,0.077
0.6323,-0.0528,0.0772
0.6359,-0.0589,0.0772
0.6413,-0.0662,0.0772
0.6472,-0.074,0.0743
0.6543,-0.0833,0.0674
0.664,-0.0933,0.0611
0.6745,-0.1026,0.0557
0.6848,-0.1109,0.0496
0.6948,-0.1192,0.0428
0.7051,-0.1273,0.0344
0.7148,-0.1351,0.0257
0.7244,-0.1419,0.0173
0.7307,-0.1485,0.009
0.7356,-0.1544,0.0022
0.7412,-0.159,-0.0042
0.7464,-0.1625,-0.0105
0.7493,-0.1659,-0.0164
0.7515,-0.1681,-0.0227
0.7527,-0.1688,-0.0296
0.7537,-0.1691,-0.0359
0.7554,-0.1688,-0.0406
0.7561,-0.1686,-0.0437
0.7564,-0.1678,-0.0454
0.7569,-0.1664,-0.0467
0.7583,-0.1647,-0.0472
0.76,-0.162,-0.0481
0.7613,-0.1593,-0.0493
0.7608,-0.1573,-0.0501
0.7598,-0.1549,-0.0503
0.7593,-0.152,-0.0511
0.7605,-0.1495,-0.053
0.7622,-0.1473,-0.0537
0.7627,-0.1449,-0.0537
0.7639,-0.1417,-0.053
0.7657,-0.1378,-0.0525
0.7674,-0.1341,-0.0523
0.7703,-0.13,-0.0525
0.7735,-0.1263,-0.0513
0.7745,-0.1283,-0.053
0.7718,-0.1344,-0.0584
0.7713,-0.1329,-0.0603
0.7749,-0.1266,-0.0584
0.7803,-0.1195,-0.0564
0.7872,-0.1114,-0.0552
0.7938,-0.1033,-0.053
0.8008,-0.0965,-0.0496
0.8089,-0.0897,-0.045
0.8162,-0.0826,-0.041
0.824,-0.076,-0.0388
0.8324,-0.0691,-0.0362
0.8414,-0.0606,-0.0327
0.8502,-0.0511,-0.0291
0.8597,-0.0437,-0.0261
0.8695,-0.0376,-0.0249
0.879,-0.0315,-0.0227
0.8881,-0.0257,-0.022
0.8988,-0.0213,-0.0227
0.91,-0.0183,-0.0235
0.9203,-0.0159,-0.0239
0.9311,-0.0134,-0.0249
0.9416,-0.0127,-0.0274
0.9518,-0.0122,-0.0296
0.9618,-0.0117,-0.0303
0.9716,-0.0117,-0.0303
0.9816,-0.012,-0.0296
0.9909,-0.0139,-0.0288
0.9982,-0.0183,-0.0288
1.0043,-0.0259,-0.0291
1.0109,-0.0357,-0.0283
1.0156,-0.0459,-0.0257
1.0188,-0.0564,-0.0222
1.0214,-0.0679,-0.0181
1.0244,-0.0789,-0.012
1.0258,-0.0906,-0.0056
1.0261,-0.1031,0.002
1.0278,-0.1148,0.0107
1.0305,-0.1261,0.0203
1.0329,-0.1373,0.0298
1.0354,-0.148,0.0398
1.0368,-0.1583,0.0501
1.0393,-0.1678,0.0586
1.0412,-0.1774,0.0667
1.0432,-0.1876,0.0748
1.0473,-0.1972,0.0823
1.0512,-0.2067,0.0906
1.0534,-0.2162,0.0975
1.0564,-0.2248,0.1031
1.0618,-0.2328,0.1082
1.0718,-0.2446,0.1148
1.0789,-0.2519,0.119
1.0862,-0.2575,0.1226
1.0945,-0.2629,0.1266
1.104,-0.268,0.1307
1.1145,-0.2726,0.1329
1.1245,-0.2766,0.1344
1.1358,-0.281,0.1361
1.148,-0.2851,0.1375
1.1602,-0.2878,0.139
1.1717,-0.29,0.1412
1.1824,-0.2922,0.1434
1.1932,-0.2946,0.1451
1.2037,-0.2961,0.1468
1.2132,-0.2981,0.1485
1.221,-0.2993,0.1505
1.2279,-0.299,0.1522
1.233,-0.2993,0.1537
1.2364,-0.3012,0.1539
1.2374,-0.302,0.1534
1.2359,-0.3005,0.1534
1.233,-0.2993,0.1544
1.2286,-0.2993,0.1546
1.2223,-0.2988,0.1544
1.2144,-0.2993,0.1551
1.2061,-0.2988,0.1561
1.1961,-0.2978,0.1566
1.1861,-0.2946,0.1578
1.1749,-0.2907,0.1608
1.1627,-0.2875,0.1639
1.1492,-0.2846,0.1669
1.1355,-0.2807,0.1686
1.1223,-0.2748,0.17
1.1096,-0.268,0.1725
1.0977,-0.2621,0.1739
1.0862,-0.2558,0.1742
1.0757,-0.248,0.1754
1.0666,-0.2389,0.1783
1.0596,-0.2289,0.1805
1.0539,-0.2182,0.1805
1.05,-0.2074,0.1805
1.0486,-0.1967,0.1796
1.0488,-0.1859,0.1764
1.0491,-0.1754,0.1715
1.0503,-0.1644,0.1661
1.053,-0.1537,0.1586
1.0561,-0.1439,0.1483
1.0596,-0.1353,0.1363
1.064,-0.1275,0.1236
1.0676,-0.1207,0.1097
1.0706,-0.1124,0.095
1.0737,-0.1051,0.0804
1.0774,-0.0989,0.065
1.0815,-0.0931,0.0474
1.0859,-0.0889,0.0286
1.0918,-0.0867,0.011
1.0991,-0.0858,-0.0073
1.107,-0.0858,-0.0259
1.1153,-0.0865,-0.0428
1.1241,-0.0887,-0.0608
1.1331,-0.0931,-0.0806
1.1426,-0.0987,-0.0999
1.1509,-0.1043,-0.1182
1.1502,-0.1153,-0.1397
1.1519,-0.1224,-0.1586
1.1636,-0.1217,-0.1754
1.1766,-0.1231,-0.1937
1.1922,-0.1248,-0.2123
1.2098,-0.128,-0.2301
1.2303,-0.1329,-0.2467
1.253,-0.1417,-0.2617
1.2787,-0.1524,-0.2766
1.3083,-0.1642,-0.2919
1.3405,-0.1771,-0.3049
1.372,-0.1918,-0.3147
1.4048,-0.2055,-0.32
1.4387,-0.2165,-0.3218
1.4732,-0.226,-0.32
1.5071,-0.235,-0.3147
1.5394,-0.2426,-0.3078
1.5692,-0.2487,-0.2988
1.5951,-0.2514,-0.288
1.6173,-0.2531,-0.2785
1.6354,-0.2555,-0.2697
1.6491,-0.2577,-0.2629
1.6581,-0.2577,-0.259
1.6605,-0.2565,-0.2565
1.6535,-0.2551,-0.2558
1.6373,-0.2541,-0.2577
1.6134,-0.2511,-0.2614
1.5831,-0.2477,-0.2673
1.5477,-0.2424,-0.2734
1.5069,-0.2362,-0.277
1.4634,-0.2287,-0.279
1.4189,-0.2194,-0.279
1.3728,-0.2106,-0.2778
1.3263,-0.2013,-0.2761
1.2789,-0.1913,-0.2741
1.2342,-0.1801,-0.2724
1.1915,-0.1686,-0.2707
1.1485,-0.1571,-0.2692
1.1074,-0.1451,-0.2695
1.0688,-0.1327,-0.2707
1.0327,-0.1214,-0.2714
0.9992,-0.1104,-0.2724
0.9675,-0.0982,-0.2756
0.9389,-0.0855,-0.2792
0.9139,-0.0735,-0.2807
0.8907,-0.0618,-0.2795
0.8688,-0.0498,-0.278
0.8499,-0.0384,-0.2768
0.8341,-0.0293,-0.2748
0.8218,-0.021,-0.2722
0.8126,-0.0147,-0.2702
0.8008,-0.0061,-0.2673
0.7879,0.0044,-0.2624
0.7764,0.0151,-0.2565
0.7666,0.0259,-0.2485
0.7569,0.0374,-0.238
0.7483,0.0484,-0.2262
0.7424,0.0611,-0.213
0.7405,0.0721,-0.1979
0.7424,0.0792,-0.1805
0.7476,0.0833,-0.1637
0.7554,0.0833,-0.1468
0.7657,0.0796,-0.1302
0.7757,0.0755,-0.1153
0.7845,0.0716,-0.1009
0.792,0.0665,-0.088
0.8006,0.0613,-0.0745
0.8082,0.0567,-0.0611
0.8143,0.0528,-0.0472
0.8216,0.0484,-0.0332
0.8294,0.044,-0.0181
0.8385,0.0396,-0.0027
0.8475,0.0344,0.0115
0.857,0.0296,0.0232
0.8666,0.0242,0.034
0.8761,0.0181,0.044
0.8866,0.0112,0.0545
0.8973,0.0044,0.065
0.9083,-0.0032,0.075
0.9198,-0.0117,0.0826
0.9308,-0.0213,0.0887
0.9428,-0.0303,0.0955
0.9535,-0.0396,0.1026
0.9638,-0.0496,0.1077
0.974,-0.0606,0.1116
0.9843,-0.0713,0.1146
0.9933,-0.0823,0.1163
1.0009,-0.0923,0.1173
1.0075,-0.1026,0.1185
1.0148,-0.119,0.1197
1.017,-0.1287,0.1185
1.019,-0.1388,0.1158
1.0205,-0.1488,0.1129
1.021,-0.1573,0.1104
1.0212,-0.1661,0.1085
1.0214,-0.1766,0.1053
1.0214,-0.1879,0.1016
1.0214,-0.1986,0.0972
1.0217,-0.2081,0.0928
1.0214,-0.2187,0.0897
1.0207,-0.2301,0.087
1.0183,-0.2406,0.085
1.0153,-0.2499,0.0831
1.0129,-0.2595,0.0811
1.0087,-0.2692,0.0799
1.0031,-0.2788,0.0794
0.9968,-0.2868,0.0774
0.9902,-0.2934,0.0745
0.9828,-0.2981,0.0711
0.975,-0.3003,0.0687
0.9692,-0.3017,0.0655
0.9631,-0.3027,0.0616
0.9543,-0.3054,0.0567
0.943,-0.3088,0.0511
0.9328,-0.3088,0.0464
0.9179,-0.31,0.041
0.9032,-0.3076,0.0362
0.8939,-0.2988,0.0337
0.8802,-0.2934,0.0305
0.8624,-0.2895,0.0269
0.8475,-0.2829,0.0244
0.835,-0.2729,0.0235
0.8245,-0.2599,0.0235
0.817,-0.2458,0.0244
0.8104,-0.2304,0.0252
0.8045,-0.2138,0.0247
0.7996,-0.1967,0.0244
0.7938,-0.1796,0.0232
0.7872,-0.162,0.021
0.781,-0.1434,0.0181
0.7747,-0.1246,0.0149
0.7686,-0.1068,0.0127
0.763,-0.0887,0.0105
0.7559,-0.0713,0.0076
0.7493,-0.054,0.0042
0.7437,-0.0376,0.002
0.7385,-0.022,0.0005
0.7329,-0.0066,-0.0024
0.7271,0.0086,-0.0056
0.7214,0.0225,-0.0088
0.7161,0.0344,-0.0137
0.7107,0.0457,-0.0183
0.7051,0.0569,-0.023
0.699,0.0674,-0.0276
0.6929,0.076,-0.032
0.6872,0.0833,-0.0359
0.6804,0.0904,-0.0391
0.6726,0.0965,-0.0428
0.6645,0.1014,-0.0457
0.6579,0.1058,-0.0474
0.6511,0.1087,-0.0498
0.6442,0.1099,-0.0518
0.6374,0.1094,-0.053
0.631,0.108,-0.0542
0.6244,0.1058,-0.0552
0.6166,0.1026,-0.0547
0.6083,0.097,-0.0545
0.6015,0.0904,-0.0525
0.5959,0.0823,-0.0498
0.5924,0.075,-0.0467
0.591,0.0699,-0.041
0.5876,0.0613,-0.0357
0.589,0.0503,-0.0322
0.6,0.0413,-0.0293
0.6017,0.0303,-0.0254
0.5995,0.0173,-0.0198
0.5959,0.0032,-0.0134
0.5924,-0.01,-0.0088
0.59,-0.0235,-0.0032
0.5895,-0.0376,0.0039
0.5895,-0.0513,0.0117
0.59,-0.0647,0.0193
0.5905,-0.0767,0.0271
0.5917,-0.0882,0.0344
0.5927,-0.0982,0.0401
0.5951,-0.1075,0.0457
0.5995,-0.117,0.0515
0.6044,-0.1258,0.0577
0.6078,-0.1329,0.0611
0.611,-0.1393,0.0635
0.6159,-0.1466,0.066
0.6222,-0.1515,0.0679
0.6298,-0.1551,0.0696
0.6379,-0.1593,0.0706
0.6445,-0.1622,0.0701
0.6508,-0.1634,0.0701
0.6582,-0.163,0.0691
0.6682,-0.1598,0.0667
0.6794,-0.1544,0.0638
0.6911,-0.1473,0.0613
0.7034,-0.1388,0.0586
0.7151,-0.13,0.0567
0.7268,-0.1222,0.0535
0.7378,-0.1146,0.0493
0.7478,-0.1068,0.0459
0.7583,-0.0992,0.043
0.7691,-0.0921,0.0403
0.7788,-0.0855,0.0371
0.7891,-0.0796,0.0344
0.8006,-0.0745,0.0318
0.8118,-0.0694,0.0293
0.8228,-0.0652,0.0274
0.8348,-0.0616,0.0254
0.8473,-0.0591,0.0239
0.8602,-0.0577,0.0237
0.8736,-0.0572,0.0237
0.8873,-0.0569,0.0242
0.902,-0.0567,0.0252
0.9179,-0.0567,0.0276
0.934,-0.0569,0.0318
0.9516,-0.0581,0.0379
0.9701,-0.0596,0.0454
0.989,-0.0611,0.0542
1.0073,-0.063,0.0635
1.0268,-0.0665,0.0723
1.0483,-0.0704,0.0814
1.0698,-0.074,0.0906
1.0918,-0.0792,0.1004
1.1138,-0.0853,0.1107
1.1348,-0.0909,0.1204
1.1563,-0.0958,0.1285
1.1773,-0.1011,0.1363
1.1981,-0.107,0.1451
1.2176,-0.1112,0.1529
1.2357,-0.1136,0.1615
1.2545,-0.1187,0.1705
1.2721,-0.1268,0.1771
1.2885,-0.1366,0.1808
1.3024,-0.1478,0.1832
1.3134,-0.1588,0.1859
1.3222,-0.17,0.1884
1.3293,-0.1805,0.1908
1.3346,-0.1928,0.1935
1.3383,-0.205,0.1935
1.3388,-0.216,0.1928
1.3361,-0.227,0.1923
1.3315,-0.2362,0.191
1.3261,-0.2431,0.1906
1.3188,-0.2548,0.1879
1.309,-0.2656,0.1832
1.297,-0.2748,0.1815
1.2824,-0.2866,0.1815
1.2665,-0.2949,0.1832
1.2477,-0.3017,0.1871
1.2252,-0.3083,0.1898
1.1991,-0.3105,0.1906
1.1609,-0.3061,0.1918
1.1392,-0.3005,0.193
1.1214,-0.2934,0.194
1.1094,-0.2853,0.193
1.1021,-0.2766,0.191
1.0984,-0.267,0.1891
1.0974,-0.2558,0.1874
1.0991,-0.2441,0.1874
1.1023,-0.2328,0.1888
1.107,-0.2216,0.1908
1.1116,-0.2096,0.1945
1.1155,-0.1967,0.1974
1.1192,-0.1849,0.1989
1.1221,-0.1742,0.1991
1.1233,-0.1625,0.1996
1.1248,-0.151,0.2008
1.127,-0.1402,0.2018
1.1294,-0.1295,0.2045
1.1309,-0.1185,0.2096
1.1316,-0.1085,0.2147
1.1333,-0.0989,0.2194
1.1346,-0.0889,0.2233
1.135,-0.0811,0.2253
1.1353,-0.0752,0.226
1.136,-0.0687,0.2255
1.1368,-0.0628,0.2223
1.136,-0.0581,0.2169
1.1346,-0.0545,0.2099
1.1328,-0.0506,0.2003
1.1306,-0.0472,0.1886
1.1294,-0.0432,0.1757
1.1285,-0.0391,0.1627
1.1282,-0.0352,0.1505
1.1289,-0.0308,0.1385
1.1314,-0.0266,0.127
1.1368,-0.0235,0.1146
1.1436,-0.0205,0.1033
1.1519,-0.0156,0.0928
1.1641,-0.0107,0.0831
1.1793,-0.0076,0.074
1.1966,-0.0061,0.0655
1.2152,-0.0068,0.0567
1.2357,-0.0093,0.0462
1.2562,-0.0125,0.0354
1.2767,-0.0161,0.0237
1.2992,-0.021,0.0103
1.3222,-0.0252,-0.0054
1.3432,-0.0288,-0.02
1.3645,-0.0332,-0.033
1.3847,-0.0381,-0.0464
1.4043,-0.0423,-0.0603
1.4243,-0.0459,-0.074
1.4443,-0.0496,-0.086
1.4639,-0.0545,-0.0965
1.4827,-0.0599,-0.1065
1.5008,-0.066,-0.1153
1.5193,-0.0726,-0.1231
1.5374,-0.0787,-0.1309
1.5528,-0.0843,-0.141
1.5672,-0.0904,-0.1502
1.5816,-0.0975,-0.159
1.5943,-0.106,-0.1676
1.6044,-0.1146,-0.1759
1.611,-0.1209,-0.1808
1.6136,-0.1251,-0.1815
1.6156,-0.1309,-0.1827
1.6168,-0.1378,-0.1845
1.6171,-0.1466,-0.1845
1.6173,-0.1573,-0.1849
1.6161,-0.1691,-0.1854
1.6102,-0.1774,-0.1859
1.6005,-0.1847,-0.1852
1.5873,-0.192,-0.1832
1.5684,-0.1976,-0.1827
1.5443,-0.1998,-0.1818
1.5157,-0.204,-0.1783
1.4859,-0.2072,-0.1749
1.4497,-0.206,-0.1717
1.4055,-0.2013,-0.1713
1.3576,-0.1908,-0.172
1.308,-0.1749,-0.1715
1.2592,-0.1561,-0.1695
1.213,-0.1353,-0.1656
1.171,-0.1138,-0.1595
1.1324,-0.0923,-0.1534
1.0962,-0.0711,-0.1485
1.062,-0.0501,-0.1437
1.0295,-0.0296,-0.1388
0.9997,-0.0098,-0.1344
0.9719,0.0093,-0.1314
0.9455,0.0274,-0.1314
0.922,0.0437,-0.1336
0.8995,0.0594,-0.1378
0.8775,0.075,-0.1439
0.859,0.0899,-0.1522
0.8431,0.1029,-0.1622
0.8284,0.1153,-0.1737
0.815,0.129,-0.1852
0.804,0.1427,-0.1937
0.7928,0.1537,-0.2018
0.781,0.1615,-0.2118
0.7701,0.1678,-0.2226
0.762,0.1739,-0.2345
0.7561,0.1796,-0.247
0.7503,0.1849,-0.2599
0.7456,0.1896,-0.2714
0.7439,0.1928,-0.2814
0.7439,0.1937,-0.29
0.7464,0.1935,-0.299
0.75,0.1925,-0.3068
0.7542,0.1908,-0.3127
0.7603,0.1884,-0.3166
0.7674,0.1849,-0.3188
0.7757,0.1805,-0.3198
0.7859,0.1739,-0.3183
0.7977,0.1644,-0.3166
0.8118,0.1529,-0.3144
0.8282,0.1393,-0.3108
0.8475,0.1236,-0.3046
0.869,0.1055,-0.2963
0.891,0.0838,-0.2868
0.9091,0.0591,-0.2785
0.921,0.0327,-0.2726
0.9281,0.0054,-0.2663
0.933,-0.022,-0.2602
0.9364,-0.0486,-0.2524
0.9398,-0.074,-0.2416
0.9452,-0.0987,-0.2287
0.9516,-0.1234,-0.2145
0.9599,-0.1473,-0.1981
0.9701,-0.1695,-0.1803
0.9814,-0.192,-0.1612
0.9933,-0.2138,-0.1424
1.0041,-0.2338,-0.1236
1.0146,-0.2519,-0.1053
1.0244,-0.2682,-0.0867
1.0341,-0.2827,-0.0682
1.0439,-0.2954,-0.0506
1.0534,-0.3056,-0.0322
1.0632,-0.3147,-0.0149
1.071,-0.3213,0.0002
1.0767,-0.3254,0.0137
1.0818,-0.3274,0.0271
1.085,-0.3269,0.0396
1.0847,-0.3244,0.0503
1.0825,-0.3193,0.0594
1.0781,-0.312,0.0645
1.0718,-0.3027,0.0674
1.0627,-0.2915,0.0696
1.053,-0.2797,0.0701
1.042,-0.2675,0.0679
1.03,-0.2555,0.0645
1.0146,-0.2436,0.0599
0.9977,-0.2314,0.053
0.9819,-0.2204,0.0454
0.966,-0.2091,0.0384
0.9501,-0.1969,0.0322
0.9345,-0.1847,0.0274
0.9196,-0.1717,0.023
0.9039,-0.1588,0.0188
0.8878,-0.1478,0.0147
0.8714,-0.1361,0.011
0.8568,-0.1231,0.0081
0.8424,-0.1112,0.0051
0.8265,-0.1004,0.0024
0.8035,-0.0821,0.0015
0.7886,-0.0708,0.0015
0.774,-0.0621,0.0029
0.76,-0.053,0.0049
0.7464,-0.043,0.0076
0.7337,-0.0325,0.0117
0.7214,-0.0225,0.0166
0.709,-0.0134,0.0215
0.6951,-0.0068,0.0261
0.6823,-0.0005,0.031
0.6706,0.0059,0.0366
0.6596,0.011,0.041
0.6494,0.0154,0.0452
0.6398,0.0186,0.0489
0.631,0.0195,0.0515
0.6237,0.0193,0.053
0.6179,0.0183,0.0557
0.6122,0.0183,0.0596
0.6069,0.0186,0.0633
0.6027,0.0176,0.066
0.6,0.0156,0.0672
0.5968,0.0144,0.0687
0.5951,0.012,0.0694
0.5934,0.0081,0.0694
0.5922,0.0037,0.0684
0.592,-0.001,0.0657
0.5927,-0.0061,0.0616
0.5951,-0.0117,0.0559
0.5978,-0.0169,0.0491
0.6015,-0.0217,0.0432
0.6059,-0.0264,0.0366
0.6117,-0.0315,0.0288
0.6196,-0.0376,0.021
0.6288,-0.0432,0.0122
0.6386,-0.0506,0.0015
0.6501,-0.0601,-0.0095
0.6613,-0.0689,-0.0186
0.6716,-0.0762,-0.0247
0.6816,-0.0831,-0.0291
0.6919,-0.0906,-0.0335
0.7019,-0.0994,-0.0371
0.7102,-0.109,-0.0406
0.7192,-0.1185,-0.0442
0.7278,-0.128,-0.0472
0.7361,-0.1371,-0.0496
0.7451,-0.1463,-0.0523
0.7542,-0.1549,-0.0545
0.7625,-0.163,-0.0559
0.7705,-0.1717,-0.0555
0.7803,-0.1825,-0.0545
0.7901,-0.1923,-0.0545
0.7999,-0.2008,-0.0528
0.8099,-0.2086,-0.0496
0.8192,-0.2167,-0.0474
0.8284,-0.224,-0.0435
0.8387,-0.2296,-0.0379
0.8495,-0.2343,-0.032
0.8582,-0.2392,-0.0266
0.8668,-0.2431,-0.022
0.8756,-0.2472,-0.0181
0.8832,-0.2511,-0.0139
0.891,-0.2538,-0.0098
0.8978,-0.256,-0.0061
0.9034,-0.2568,-0.0017
0.9086,-0.2575,0.0024
0.9125,-0.2575,0.0059
0.9149,-0.2565,0.0076
0.9159,-0.2541,0.009
0.9161,-0.2514,0.0098
0.9161,-0.248,0.0105
0.9159,-0.2431,0.0115
0.9157,-0.2365,0.0117
0.9142,-0.2294,0.0125
0.9115,-0.2221,0.0115
0.9081,-0.215,0.0107
0.9054,-0.2069,0.012
0.9027,-0.1972,0.0122
0.8988,-0.1864,0.0125
0.8944,-0.1761,0.0132
0.8883,-0.1666,0.0147
0.8829,-0.1568,0.0164
0.8775,-0.1473,0.0181
0.8729,-0.1385,0.0208
0.8683,-0.1292,0.0244
0.8624,-0.1202,0.0291
0.8573,-0.1124,0.0332
0.8541,-0.1055,0.0381
0.8517,-0.0982,0.0432
0.8497,-0.0914,0.0484
0.8477,-0.087,0.0542
0.8468,-0.0831,0.0608
0.8463,-0.0799,0.0662
0.847,-0.0789,0.0687
0.8482,-0.0789,0.073
0.8499,-0.0801,0.0789
0.8521,-0.0823,0.0823
0.8546,-0.0855,0.085
0.8558,-0.0858,0.0892
0.8578,-0.0845,0.096
0.8612,-0.0838,0.1026
0.8653,-0.085,0.1075
0.87,-0.0872,0.1116
0.8741,-0.0909,0.1143
0.8778,-0.0938,0.1148
0.8815,-0.0958,0.1136
0.8851,-0.0965,0.1112
0.889,-0.098,0.1092
0.8934,-0.0994,0.1063
0.8983,-0.1011,0.1036
0.9039,-0.1038,0.1002
0.9083,-0.106,0.0963
0.9137,-0.1068,0.0921
0.9215,-0.1087,0.086
0.9293,-0.1116,0.0794
0.935,-0.1158,0.0738
0.9401,-0.1207,0.0677
0.9464,-0.127,0.0625
0.9526,-0.1349,0.0579
0.9589,-0.1451,0.0535
0.9662,-0.1564,0.0515
0.9748,-0.1673,0.0513
0.9826,-0.1788,0.0511
0.9892,-0.1903,0.0513
0.9946,-0.2008,0.0535
0.9995,-0.2116,0.0564
1.0034,-0.2221,0.0591
1.0051,-0.2304,0.0611
1.0058,-0.2382,0.0623
1.0068,-0.2465,0.0638
1.007,-0.2548,0.066
1.0075,-0.2624,0.0687
1.0087,-0.2704,0.0716
1.0092,-0.277,0.0738
1.0102,-0.2824,0.0755
1.0119,-0.2875,0.0774
1.0144,-0.2917,0.0792
1.0158,-0.2961,0.0799
1.0161,-0.3005,0.0792
1.0151,-0.3037,0.0789
1.0134,-0.3066,0.0787
1.0109,-0.309,0.0787
1.007,-0.3115,0.0796
1.0026,-0.3139,0.0809
0.9975,-0.3169,0.0833
0.9916,-0.3193,0.0865
0.986,-0.3213,0.0906
0.9797,-0.3249,0.0941
0.9743,-0.3291,0.0985
0.9692,-0.3332,0.1043
0.964,-0.3376,0.1102
0.9594,-0.342,0.1168
0.956,-0.3474,0.1236
0.9521,-0.3518,0.1319
0.9479,-0.355,0.141
0.943,-0.3574,0.1495
0.9376,-0.3596,0.1578
0.9311,-0.3608,0.1661
0.924,-0.3608,0.1742
0.9161,-0.3599,0.182
0.9022,-0.3567,0.1923
0.892,-0.353,0.1991
0.8817,-0.3481,0.2062
0.8702,-0.3423,0.2121
0.8592,-0.3362,0.2179
0.8482,-0.3293,0.224
0.838,-0.3215,0.2287
0.8277,-0.3125,0.2314
0.8165,-0.3037,0.2338
0.8045,-0.2949,0.236
0.7933,-0.2849,0.2367
0.7835,-0.2753,0.2365
0.7747,-0.2675,0.2362
0.7671,-0.2614,0.237
0.7608,-0.2575,0.2382
0.7556,-0.2558,0.2392
0.752,-0.2538,0.2409
0.751,-0.2541,0.2433
0.7522,-0.256,0.2467
0.7532,-0.2597,0.2502
0.7544,-0.2641,0.2533
0.7591,-0.2702,0.2555
0.7649,-0.2778,0.2565
0.772,-0.2858,0.2563
0.7815,-0.2929,0.2555
0.792,-0.2985,0.2536
0.804,-0.3044,0.2509
0.8189,-0.3103,0.2487
0.8353,-0.3154,0.2475
0.8519,-0.32,0.2465
0.8695,-0.3237,0.245
0.8876,-0.3264,0.2441
0.9069,-0.3283,0.2416
0.9269,-0.3305,0.2397
0.9467,-0.333,0.2384
0.9645,-0.3352,0.2353
0.9799,-0.3369,0.2309
0.9931,-0.3384,0.2265
1.0056,-0.3396,0.2233
1.0175,-0.3411,0.2216
1.0283,-0.3425,0.2204
1.0363,-0.3442,0.2204
1.0425,-0.3474,0.2206
1.0478,-0.3506,0.2213
1.0522,-0.3542,0.2231
1.0552,-0.3572,0.2248
1.0561,-0.3604,0.2262
1.0564,-0.364,0.2279
1.0571,-0.3682,0.2287
1.0578,-0.3733,0.2289
1.0588,-0.3789,0.2287
1.061,-0.384,0.2287
1.0635,-0.3889,0.2282
1.0647,-0.3933,0.2265
1.0659,-0.3987,0.2255
1.0688,-0.4036,0.2248
1.0725,-0.4077,0.2233
1.0757,-0.4117,0.2209
1.0791,-0.4148,0.2182
1.0828,-0.4163,0.2157
1.0869,-0.4173,0.2147
1.0918,-0.4183,0.2152
1.0969,-0.419,0.216
1.1033,-0.419,0.2165
1.1118,-0.419,0.2167
1.1214,-0.4192,0.2172
1.1316,-0.42,0.2189
1.1426,-0.42,0.2221
1.1548,-0.4178,0.2255
1.1673,-0.4153,0.2296
1.1805,-0.4124,0.2348
1.1939,-0.4092,0.2399
1.2064,-0.4058,0.2455
1.2159,-0.4012,0.2521
1.2242,-0.3943,0.2585
1.2308,-0.386,0.2648
1.2359,-0.3792,0.2717
1.2394,-0.3738,0.2785
1.2413,-0.3679,0.2851
1.2403,-0.3616,0.2902
1.2377,-0.356,0.2951
1.2328,-0.3506,0.2988
1.2254,-0.3459,0.3012
1.2149,-0.3408,0.3032
1.2013,-0.3359,0.3061
1.1844,-0.3327,0.31
1.1658,-0.3296,0.3132
1.1468,-0.3271,0.3152
1.1272,-0.3249,0.3169
1.1074,-0.3222,0.3178
1.0869,-0.3208,0.3178
1.0662,-0.3198,0.3169
1.0449,-0.3166,0.3164
1.0251,-0.3112,0.3147
1.0065,-0.3037,0.313
0.9892,-0.2951,0.3093
0.9745,-0.2858,0.3015
0.9633,-0.2753,0.2885
0.9572,-0.2634,0.2736
0.9562,-0.2499,0.2575
0.9613,-0.2353,0.2404
0.9714,-0.2199,0.2233
0.9848,-0.2023,0.2101
1.0004,-0.1837,0.2033
1.0168,-0.1634,0.2035
1.0332,-0.1422,0.2081
1.0481,-0.1204,0.2165
1.0598,-0.0989,0.2279
1.0696,-0.0782,0.2416
1.0781,-0.0599,0.2565
1.0845,-0.0435,0.2724
1.0896,-0.0279,0.2895
1.095,-0.0129,0.3095
1.1023,0.0027,0.3337
1.1126,0.0178,0.3621
1.1258,0.0332,0.3924
1.1424,0.0493,0.4222
1.1634,0.0657,0.4498
1.1873,0.0801,0.4744
1.2137,0.0933,0.4964
1.243,0.1055,0.5133
1.2731,0.1187,0.5238
1.3034,0.1309,0.5279
1.3276,0.1375,0.5218
1.3522,0.1512,0.5096
1.3811,0.171,0.4928
1.4109,0.1896,0.4713
1.438,0.2038,0.4432
1.4568,0.2121,0.4068
1.4763,0.2233,0.3682
1.4964,0.2343,0.3283
1.5159,0.2419,0.2871
1.533,0.2465,0.2433
1.5482,0.2475,0.1989
1.5621,0.246,0.1568
1.5733,0.2414,0.1187
1.586,0.2355,0.0865
1.5946,0.2255,0.0572
1.5943,0.2077,0.0281
1.587,0.184,0.0
1.5743,0.161,-0.0264
1.5545,0.1415,-0.0515
1.5284,0.1236,-0.0755
1.4981,0.1082,-0.096
1.4624,0.0958,-0.1148
1.4233,0.086,-0.1319
1.383,0.0774,-0.1463
1.3427,0.0694,-0.1588
1.3026,0.0645,-0.1678
1.2636,0.0611,-0.1749
1.2269,0.0574,-0.1791
1.1947,0.0535,-0.1808
1.1656,0.0515,-0.1815
1.1382,0.052,-0.1813
1.1138,0.0525,-0.1801
1.0925,0.0545,-0.1796
1.0747,0.0581,-0.1805
1.0588,0.0635,-0.1818
1.0373,0.0757,-0.1886
1.0266,0.0858,-0.1957
1.0178,0.0963,-0.205
1.0097,0.1077,-0.216
1.0051,0.1197,-0.2274
1.0024,0.1314,-0.2387
1.0021,0.1422,-0.2482
1.0034,0.1542,-0.2585
1.0063,0.1661,-0.269
1.0117,0.1761,-0.2785
1.0178,0.1854,-0.2863
1.0249,0.1947,-0.2912
1.0334,0.2042,-0.2927
1.0432,0.213,-0.2912
1.053,0.2206,-0.2861
1.0627,0.2284,-0.277
1.0718,0.2367,-0.2656
1.0806,0.2448,-0.2511
1.0899,0.2504,-0.2345
1.0964,0.2558,-0.216
1.0996,0.2612,-0.1967
1.1013,0.2643,-0.1761
1.1018,0.2646,-0.1532
1.0999,0.2639,-0.128
1.096,0.2621,-0.1016
1.0903,0.259,-0.074
1.083,0.2533,-0.0454
1.0737,0.2463,-0.0183
1.0635,0.2377,0.0066
1.0525,0.2279,0.0308
1.0425,0.2169,0.054
1.0319,0.2042,0.0752
1.0212,0.1903,0.0943
1.0102,0.1776,0.1121
0.9992,0.1647,0.128
0.9875,0.1532,0.1415
0.975,0.1441,0.1532
0.9628,0.1361,0.1627
0.9516,0.129,0.1691
0.9406,0.1229,0.1749
0.9298,0.117,0.1786
0.9193,0.1087,0.1786
0.9086,0.0994,0.1754
0.8981,0.0894,0.1693
0.8876,0.0809,0.1625
0.8783,0.0743,0.1542
0.87,0.0667,0.1459
0.8626,0.0594,0.1361
0.8565,0.053,0.1251
0.8475,0.0457,0.1136
0.8411,0.0413,0.1009
0.8387,0.0381,0.0882
0.8331,0.033,0.0752
0.8282,0.033,0.0618
0.8255,0.0337,0.0511
0.8211,0.0303,0.0408
0.8189,0.0305,0.0308
0.8172,0.0308,0.0215
0.814,0.0286,0.0112
0.8104,0.0274,0.0015
0.8077,0.0274,-0.0064
0.8077,0.0288,-0.0129
0.8111,0.0318,-0.0181
0.8167,0.0359,-0.0205
0.824,0.0408,-0.0213
0.8333,0.0469,-0.0205
0.8433,0.0535,-0.0181
0.8531,0.0611,-0.0164
0.8626,0.0706,-0.0144
0.8719,0.0806,-0.0129
0.8802,0.0909,-0.0125
0.8861,0.1011,-0.0132
0.8888,0.1114,-0.0147
0.891,0.1226,-0.0171
0.8932,0.1334,-0.0186
0.8978,0.1437,-0.0181
0.9052,0.1524,-0.0161
0.9122,0.162,-0.0132
0.9174,0.1727,-0.0098
0.9208,0.1842,-0.0054
0.9235,0.1947,0.0007
0.9247,0.2052,0.0066
0.9257,0.2157,0.0117
0.9264,0.2253,0.0176
0.9267,0.2343,0.0222
0.9271,0.2431,0.0259
0.9276,0.2516,0.0296
0.9276,0.2602,0.0335
0.9269,0.2682,0.0369
0.9271,0.2766,0.0418
0.9269,0.2844,0.0484
0.9267,0.2912,0.0567
0.9269,0.2968,0.0665
0.9271,0.3015,0.076
0.9281,0.3049,0.084
0.9298,0.3068,0.0899
0.9303,0.3071,0.0919
0.9303,0.3054,0.0928
0.9298,0.3027,0.0933
0.9284,0.2988,0.0933
0.9271,0.2937,0.0931
0.9252,0.2871,0.0921
0.9205,0.2795,0.0906
0.9149,0.2709,0.0911
0.9093,0.2621,0.0911
0.903,0.2536,0.0889
0.8959,0.2448,0.0845
0.8888,0.2348,0.0784
0.8817,0.2243,0.0723
0.8758,0.2155,0.0662
0.8712,0.2067,0.0591
0.867,0.1974,0.0513
0.8636,0.1886,0.042
0.8612,0.1805,0.031
0.8597,0.1727,0.0208
0.8592,0.1647,0.011
0.8597,0.1571,0.0017
0.8631,0.149,-0.0064
0.8695,0.1388,-0.0139
0.8771,0.1273,-0.0213
0.8832,0.1173,-0.0286
0.8881,0.1087,-0.0354
0.8929,0.0997,-0.0413
0.8981,0.0911,-0.0454
0.9025,0.0845,-0.0496
0.9078,0.0772,-0.055
0.9135,0.0691,-0.0608
0.9176,0.0628,-0.0674
0.921,0.0579,-0.0733
0.924,0.054,-0.0782
0.9279,0.0503,-0.0826
0.933,0.0469,-0.086
0.9374,0.0435,-0.087
0.9413,0.0391,-0.0875
0.9447,0.0352,-0.0887
0.9455,0.0327,-0.0887
0.9447,0.0315,-0.0884
0.9418,0.0313,-0.0877
0.9384,0.0325,-0.0867
0.9357,0.0349,-0.0845
0.9323,0.0357,-0.0833
0.9242,0.0357,-0.084
0.9127,0.0371,-0.0853
0.9,0.0401,-0.085
0.8895,0.044,-0.0816
0.8812,0.0501,-0.0745
0.8736,0.0557,-0.0679
0.8656,0.0584,-0.0623
0.8563,0.0608,-0.0581
0.8482,0.0643,-0.0557
0.8399,0.0687,-0.053
0.8321,0.0743,-0.0491
0.8265,0.0806,-0.045
0.8226,0.0875,-0.0391
0.8204,0.0941,-0.0322
0.8204,0.1002,-0.0261
0.8218,0.1051,-0.0203
0.8231,0.1092,-0.0147
0.8238,0.1126,-0.0105
0.8245,0.1156,-0.0068
0.8253,0.1173,-0.0039
0.8275,0.1185,-0.0032
0.828,0.1175,-0.0042
0.8272,0.117,-0.0044
0.825,0.1158,-0.0066
0.8238,0.1136,-0.009
0.8233,0.1102,-0.0107
0.8233,0.1055,-0.0132
0.8233,0.0989,-0.0166
0.8233,0.0919,-0.0203
0.8233,0.0843,-0.0232
0.8253,0.0772,-0.0257
0.8292,0.0701,-0.0281
0.8353,0.0655,-0.0269
0.8414,0.0591,-0.0237
0.8446,0.0493,-0.0239
0.848,0.0393,-0.0254
0.8526,0.0305,-0.0257
0.8607,0.0249,-0.0237
0.8751,0.0227,-0.0198
0.8839,0.0129,-0.0161
0.8851,0.0007,-0.0134
0.8871,-0.0056,-0.0105
0.8876,-0.0125,-0.0083
0.8876,-0.0191,-0.0054
0.8878,-0.0269,-0.0017
0.8873,-0.0327,0.0022
0.8871,-0.0386,0.0061
0.8871,-0.0442,0.0105
0.8859,-0.0498,0.0164
0.8859,-0.0559,0.0239
0.8868,-0.0616,0.032
0.8866,-0.0665,0.0393
0.8856,-0.0704,0.0459
0.8837,-0.0748,0.0525
0.8812,-0.0799,0.0591
0.8788,-0.0836,0.0652
0.8766,-0.0867,0.0718
0.8739,-0.0911,0.0789
0.8695,-0.0948,0.0858
0.8658,-0.0977,0.0931
0.8634,-0.1029,0.0989
0.86,-0.1087,0.1036
0.8553,-0.1136,0.1085
0.8514,-0.1185,0.1136
0.8487,-0.1236,0.1178
0.8473,-0.1292,0.12
0.8453,-0.1346,0.1214
0.8424,-0.1378,0.1229
0.8414,-0.1417,0.1258
0.8431,-0.1466,0.1292
0.846,-0.1515,0.1336
0.8502,-0.1573,0.1393
0.8551,-0.1642,0.1454
0.8604,-0.1703,0.1512
0.8668,-0.1742,0.1573
0.8746,-0.1759,0.1642
0.8839,-0.1764,0.1705
0.8934,-0.1742,0.1747
0.9034,-0.1705,0.1791
0.9137,-0.1669,0.1842
0.9257,-0.1639,0.1886
0.9374,-0.1605,0.1923
0.9477,-0.1556,0.1957
0.9574,-0.1493,0.1996
0.9665,-0.1427,0.2035
0.975,-0.1353,0.2079
0.9809,-0.1287,0.2125
0.985,-0.1212,0.2167
0.9894,-0.1126,0.2201
0.9919,-0.1043,0.2223
0.9941,-0.0963,0.2228
0.996,-0.088,0.2218
0.997,-0.0796,0.2196
0.9977,-0.0721,0.2174
0.9968,-0.0638,0.2147
0.9948,-0.0555,0.2111
0.9919,-0.0472,0.2084
0.9877,-0.0391,0.2047
0.9846,-0.032,0.2018
0.9797,-0.0257,0.2001
0.9731,-0.0203,0.1959
0.9667,-0.0144,0.1923
0.9611,-0.0083,0.1898
0.955,-0.0042,0.1881
0.9501,-0.001,0.1867
0.945,0.0027,0.1864
0.9406,0.0046,0.1879
0.9367,0.0051,0.1898
0.9306,0.0059,0.191
0.9249,0.0061,0.192
0.9198,0.0054,0.1928
0.9132,0.0046,0.1932
0.9105,0.0059,0.1964
0.9132,0.0105,0.202
0.9149,0.0181,0.2064
0.9157,0.0247,0.2086
0.9174,0.0227,0.2077
0.9201,0.0154,0.2033
0.9201,0.0076,0.1986
0.9191,-0.0002,0.1945
0.9183,-0.0093,0.191
0.9164,-0.0181,0.1888
0.9147,-0.0242,0.1884
0.9157,-0.0313,0.1925
0.9181,-0.0401,0.1998
0.9201,-0.0489,0.2091
0.9218,-0.0577,0.2196
0.9232,-0.0645,0.2301
0.9245,-0.0701,0.2404
0.9267,-0.0757,0.2509
0.9293,-0.0809,0.2619
0.9311,-0.085,0.2719
0.9323,-0.0892,0.2817
0.9337,-0.0936,0.2915
0.9357,-0.0963,0.301
0.9396,-0.0943,0.3132
0.9445,-0.0877,0.3283
0.9496,-0.0774,0.3459
0.956,-0.0662,0.3647
0.9601,-0.0525,0.3828
0.9613,-0.0396,0.3992
0.9606,-0.0281,0.4129
0.9574,-0.0166,0.4244
0.9506,-0.0046,0.4344
0.942,0.0068,0.4424
0.9323,0.0181,0.4481
0.9218,0.0291,0.4507
0.9108,0.0396,0.451
0.899,0.0501,0.4495
0.8876,0.0608,0.4463
0.8793,0.0708,0.4405
0.8719,0.0794,0.4329
0.8658,0.0872,0.4248
0.8614,0.0938,0.4165
0.8582,0.0992,0.4092
0.856,0.1043,0.4031
0.8553,0.107,0.3985
0.8563,0.1082,0.3941
0.8568,0.1087,0.388
0.8573,0.1075,0.3823
0.8587,0.1046,0.3762
0.8612,0.1014,0.3709
0.8648,0.0977,0.3657
0.87,0.0938,0.3601
0.8758,0.0887,0.3538
0.8837,0.0826,0.3469
0.8922,0.0774,0.3403
0.9012,0.0706,0.3345
0.9098,0.0625,0.3291
0.9201,0.0537,0.3244
0.9308,0.045,0.3218
0.9433,0.0376,0.32
0.9569,0.031,0.3183
0.9701,0.0237,0.3166
0.9833,0.0161,0.3159
0.9985,0.0076,0.3154
1.0151,-0.0007,0.3159
1.0324,-0.0078,0.3169
1.0491,-0.0154,0.3186
1.0657,-0.0237,0.321
1.0833,-0.0327,0.3244
1.1006,-0.0423,0.3286
1.1167,-0.0513,0.3327
1.1336,-0.0586,0.3374
1.1517,-0.0657,0.3413
1.1688,-0.0723,0.3462
1.1854,-0.0777,0.3528
1.201,-0.0821,0.3584
1.2157,-0.0845,0.3635
1.2367,-0.0862,0.3723
1.2504,-0.0845,0.3784
1.2626,-0.0809,0.3855
1.2733,-0.0774,0.3926
1.2829,-0.0726,0.3999
1.2924,-0.0652,0.406
1.3022,-0.0559,0.4095
1.3097,-0.0462,0.4114
1.3153,-0.0364,0.4126
1.3205,-0.0271,0.4121
1.3261,-0.0166,0.4121
1.331,-0.0049,0.4126
1.3356,0.0073,0.4129
1.3398,0.0188,0.4141
1.3427,0.0293,0.4163
1.3444,0.0401,0.4195
1.3432,0.0501,0.4231
1.3393,0.0584,0.4278
1.3329,0.066,0.4327
1.3261,0.073,0.4371
1.3173,0.0804,0.4405
1.3068,0.0867,0.442
1.2946,0.0901,0.442
1.2799,0.0919,0.4432
1.2638,0.0936,0.4454
1.2467,0.0943,0.4478
1.2315,0.0941,0.4507
1.2171,0.0933,0.4534
1.2027,0.0933,0.4573
1.1886,0.0926,0.4642
1.1744,0.0923,0.4718
1.1605,0.0931,0.481
1.1468,0.0943,0.4925
1.1328,0.0943,0.5074
1.1187,0.0933,0.5226
1.1048,0.0923,0.535
1.0894,0.0909,0.5458
1.0735,0.0901,0.5534
1.0591,0.0926,0.5553
1.0373,0.0916,0.5455
1.0105,0.088,0.5233
0.9865,0.0865,0.4962
0.967,0.0936,0.463
0.9486,0.0992,0.4175
0.9242,0.1014,0.3594
0.8961,0.1033,0.2959
0.8692,0.1092,0.2345
0.8475,0.1173,0.1796
0.8292,0.1241,0.1256
0.816,0.1329,0.0723
0.8052,0.1444,0.0213
0.7986,0.1583,-0.0266
0.7972,0.1735,-0.0704
0.8038,0.1896,-0.1065
0.8184,0.2081,-0.1341
0.8389,0.2282,-0.1529
0.8675,0.2485,-0.1656
0.9054,0.27,-0.1713
0.9499,0.2902,-0.1703
0.9973,0.3088,-0.1642
1.0461,0.3264,-0.1568
1.0984,0.3352,-0.15
1.1499,0.331,-0.1429
1.1959,0.3193,-0.141
1.2345,0.3093,-0.1439
1.266,0.3127,-0.1476
1.2963,0.3279,-0.15
1.3317,0.3437,-0.1466
1.373,0.3552,-0.1353
1.4162,0.3635,-0.1175
1.46,0.3696,-0.0955
1.5039,0.3713,-0.0735
1.546,0.3667,-0.054
1.5858,0.3582,-0.0354
1.621,0.3467,-0.0164
1.6508,0.3332,0.002
1.6772,0.3181,0.021
1.7016,0.3,0.043
1.7231,0.2788,0.0694
1.7363,0.2568,0.0972
1.7375,0.2348,0.1212
1.7248,0.2157,0.1356
1.6996,0.2006,0.1375
1.663,0.1888,0.1261
1.6171,0.1813,0.1036
1.5677,0.1769,0.0772
1.5196,0.1739,0.0503
1.4732,0.1722,0.0239
1.4287,0.171,-0.002
1.3874,0.1713,-0.0291
1.3483,0.1732,-0.0574
1.3109,0.1759,-0.0867
1.2758,0.1798,-0.1156
1.243,0.1847,-0.1429
1.2135,0.1896,-0.1695
1.1868,0.1932,-0.1952
1.1617,0.1967,-0.2184
1.1394,0.1996,-0.2389
1.1187,0.202,-0.2582
1.0986,0.2047,-0.2768
1.0793,0.2069,-0.2954
1.0618,0.2091,-0.3144
1.0469,0.2116,-0.3327
1.0337,0.214,-0.3506
1.0205,0.2155,-0.3669
1.007,0.216,-0.3826
0.9919,0.2169,-0.3982
0.9762,0.2182,-0.4121
0.9609,0.2184,-0.4231
0.945,0.2179,-0.4307
0.9308,0.2162,-0.4332
0.9196,0.2143,-0.4319
0.9078,0.2128,-0.431
0.8995,0.2079,-0.4261
0.8946,0.2011,-0.4163
0.8895,0.1896,-0.4024
0.8812,0.1725,-0.3855
0.8697,0.1537,-0.3674
0.8575,0.1351,-0.3469
0.8458,0.1168,-0.3227
0.8367,0.0992,-0.2949
0.8319,0.0833,-0.2658
0.8304,0.0701,-0.2372
0.8319,0.0577,-0.2094
0.8365,0.0454,-0.183
0.8436,0.0335,-0.1576
0.8521,0.0217,-0.1329
0.8619,0.0098,-0.1087
0.8734,-0.002,-0.0862
0.8854,-0.0132,-0.0655
0.8968,-0.0242,-0.0472
0.9088,-0.0359,-0.0296
0.9208,-0.0474,-0.0142
0.9325,-0.0579,-0.0029
0.9452,-0.0672,0.0066
0.9582,-0.0743,0.0142
0.9706,-0.0784,0.021
0.9821,-0.0811,0.0266
0.9953,-0.0821,0.0305
1.009,-0.0806,0.0322
1.0222,-0.0765,0.0335
1.0351,-0.0706,0.0332
1.0481,-0.0623,0.0308
1.0613,-0.0518,0.0264
1.0745,-0.0415,0.0203
1.0874,-0.0296,0.012
1.0986,-0.0151,0.0024
1.1084,0.0002,-0.0083
1.1182,0.0161,-0.0191
1.126,0.032,-0.0296
1.1319,0.0481,-0.0396
1.1375,0.0645,-0.0496
1.1424,0.0804,-0.0577
1.1465,0.096,-0.0638
1.1512,0.1168,-0.0694
1.1531,0.13,-0.0708
1.1539,0.1417,-0.0718
1.1534,0.1522,-0.0733
1.1512,0.1605,-0.074
1.1475,0.1681,-0.074
1.1441,0.1761,-0.0723
1.1419,0.1842,-0.0694
1.139,0.1906,-0.0645
1.1348,0.1945,-0.0591
1.1287,0.1967,-0.0542
1.1211,0.1979,-0.0493
1.1123,0.1984,-0.0447
1.1033,0.1981,-0.0398
1.0935,0.1964,-0.0347
1.0835,0.194,-0.0286
1.074,0.191,-0.0227
1.064,0.1871,-0.0169
1.0534,0.183,-0.0112
1.041,0.1791,-0.0061
1.0285,0.1752,-0.002
1.017,0.1695,0.0012
1.0048,0.1612,0.0044
0.9936,0.1532,0.0068
0.9831,0.1451,0.0088
0.9719,0.1358,0.0105
0.9613,0.1268,0.0125
0.9508,0.1175,0.0151
0.9391,0.1082,0.0176
0.9274,0.0987,0.0213
0.9159,0.0887,0.0261
0.9071,0.0784,0.0318
0.9003,0.0669,0.0393
0.8934,0.0555,0.0474
0.8863,0.0435,0.055
0.8793,0.0322,0.0625
0.8732,0.022,0.0701
0.8678,0.0103,0.0779
0.8626,-0.0012,0.0862
0.8573,-0.0122,0.0948
0.8526,-0.022,0.1038
0.8487,-0.0308,0.1136
0.8451,-0.0379,0.1231
0.8416,-0.0447,0.1317
0.8389,-0.0503,0.1393
0.8358,-0.0535,0.1461
0.8336,-0.0542,0.1507
0.8316,-0.0535,0.1549
0.8302,-0.0513,0.1581
0.8277,-0.0491,0.162
0.8255,-0.0462,0.1656
0.8245,-0.0452,0.1678
0.8255,-0.0462,0.1705
0.828,-0.0479,0.1749
0.8304,-0.0491,0.1805
0.8341,-0.0513,0.1871
0.8389,-0.0542,0.1935
0.8443,-0.0552,0.1979
0.848,-0.0533,0.1989
0.8487,-0.0506,0.1984
0.8495,-0.0481,0.1986
0.8521,-0.0469,0.2023
0.8578,-0.0452,0.2067
0.8641,-0.042,0.2081
0.8697,-0.0376,0.2074
0.8766,-0.0325,0.2064
0.8849,-0.0283,0.204
0.8934,-0.023,0.2018
0.903,-0.0156,0.1984
0.9113,-0.0068,0.1935
0.9179,0.0017,0.1859
0.9235,0.009,0.1781
0.9286,0.0166,0.1708
0.9333,0.0227,0.1637
0.9374,0.0274,0.1568
0.9425,0.0342,0.1515
0.9484,0.0423,0.149
0.955,0.0501,0.1498
0.9613,0.0572,0.1498
0.9677,0.0616,0.1493
0.9736,0.0647,0.149
0.9794,0.0699,0.15
0.9863,0.0757,0.152
0.9921,0.0826,0.1554
0.9963,0.0897,0.1598
0.999,0.0955,0.1644
1.0019,0.1016,0.1688
1.0043,0.1041,0.1708
1.0061,0.106,0.1722
1.0056,0.109,0.1747
1.0029,0.1121,0.1771
1.0004,0.1163,0.1808
0.996,0.1163,0.1827
0.9892,0.1151,0.1818
0.9841,0.1143,0.1805
0.9787,0.1114,0.1786
0.9704,0.109,0.1749
0.9601,0.1082,0.171
0.9511,0.1053,0.1666
0.9406,0.1014,0.1598
0.9293,0.1016,0.1542
0.921,0.1009,0.1498
0.9125,0.0982,0.1437
0.903,0.0982,0.1375
0.8944,0.0975,0.1324
0.8876,0.095,0.1287
0.8815,0.0923,0.1251
0.8758,0.0894,0.1207
0.8695,0.087,0.1175
0.8629,0.0848,0.1146
0.8575,0.0828,0.1112
0.8509,0.0814,0.109
0.8443,0.0777,0.1073
0.8382,0.0735,0.1043
0.8326,0.0691,0.1033
0.8248,0.0643,0.1046
0.817,0.0581,0.1068
0.8109,0.0518,0.1094
0.8047,0.0459,0.1124
0.7996,0.0393,0.1148
0.7945,0.0332,0.117
0.7896,0.0274,0.1192
0.7859,0.0215,0.1217
0.7835,0.0156,0.1241
0.781,0.0107,0.127
0.7781,0.0051,0.1305
0.7754,-0.0012,0.1349
0.7735,-0.0076,0.1397
0.7703,-0.0142,0.1449
0.7674,-0.0208,0.15
0.7652,-0.0274,0.1559
0.7632,-0.0342,0.1617
0.763,-0.041,0.1681
0.7625,-0.0489,0.1742
0.762,-0.0564,0.1805
0.763,-0.0645,0.1876
0.7652,-0.0726,0.1947
0.7669,-0.0804,0.202
0.7693,-0.088,0.2101
0.7727,-0.0941,0.2182
0.7762,-0.1009,0.2248
0.7774,-0.1082,0.2292
0.7793,-0.1156,0.2316
0.7825,-0.1217,0.234
0.7857,-0.1283,0.2358
0.7901,-0.1349,0.237
0.7959,-0.141,0.2375
0.8021,-0.1466,0.238
0.8096,-0.1505,0.237
0.8187,-0.1539,0.2348
0.8272,-0.1576,0.2323
0.837,-0.161,0.2299
0.8475,-0.1634,0.2279
0.8575,-0.1652,0.2255
0.8663,-0.1669,0.2218
0.8751,-0.1678,0.2177
0.8839,-0.1678,0.2125
0.8915,-0.1673,0.2064
0.8995,-0.1669,0.2011
0.9076,-0.1649,0.1979
0.9159,-0.1627,0.1952
0.924,-0.16,0.1923
0.9313,-0.1573,0.1898
0.9394,-0.1544,0.1884
0.9464,-0.1515,0.1871
0.9538,-0.149,0.1874
0.9613,-0.1456,0.1869
0.9677,-0.1419,0.1857
0.9743,-0.1378,0.1837
0.9802,-0.1324,0.1805
0.9855,-0.1275,0.1766
0.9899,-0.1224,0.1717
0.9931,-0.1156,0.1659
0.9965,-0.1058,0.1549
0.9992,-0.0982,0.149
1.0012,-0.0901,0.1429
1.0019,-0.0811,0.1351
1.0026,-0.0723,0.1266
1.0034,-0.0623,0.119
1.0043,-0.052,0.1129
1.0056,-0.0403,0.107
1.0068,-0.0283,0.1019
1.0083,-0.0181,0.0989
1.0085,-0.0071,0.0987
1.0087,0.0032,0.1002
1.0122,0.0122,0.1055
1.0202,0.0217,0.1112
1.0305,0.0318,0.1121
1.0381,0.0423,0.1094
1.041,0.0513,0.1085
1.0407,0.0577,0.1097
1.04,0.0621,0.1136
1.0398,0.066,0.1192
1.0415,0.0706,0.1268
1.0469,0.0738,0.1375
1.0532,0.0752,0.1512
1.0593,0.0752,0.1649
1.0644,0.0733,0.1781
1.0676,0.0672,0.1891
1.0725,0.0621,0.1989
1.0798,0.0601,0.2113
1.0855,0.0591,0.2238
1.0896,0.0564,0.2345
1.092,0.0501,0.2433
1.0942,0.0415,0.2485
1.096,0.0322,0.2489
1.0972,0.0227,0.2467
1.0989,0.0127,0.2428
1.1013,0.0034,0.2375
1.1057,-0.0054,0.2316
1.1096,-0.0144,0.2255
1.115,-0.022,0.2204
1.1211,-0.0283,0.2145
1.1265,-0.0332,0.2084
1.1309,-0.0376,0.202
1.135,-0.0423,0.195
1.138,-0.0457,0.1871
1.1412,-0.0489,0.1783
1.1451,-0.0528,0.1683
1.1504,-0.0581,0.1581
1.1587,-0.0655,0.1473
1.168,-0.0743,0.1371
1.1788,-0.0848,0.1268
1.1905,-0.0958,0.1156
1.2,-0.1058,0.1031
1.2066,-0.1138,0.0921
1.2118,-0.1212,0.0823
1.2144,-0.128,0.0733
1.2142,-0.1329,0.0621
1.2113,-0.1361,0.0464
1.2076,-0.138,0.0288
1.2047,-0.1393,0.0122
1.2042,-0.1419,-0.0042
1.2093,-0.1456,-0.0208
1.2181,-0.1502,-0.0371
1.2306,-0.1568,-0.0508
1.2474,-0.1649,-0.0591
1.2684,-0.1744,-0.0628
1.2912,-0.1845,-0.0645
1.3144,-0.1915,-0.0623
1.3371,-0.1957,-0.0567
1.3608,-0.1996,-0.0491
1.3842,-0.202,-0.0403
1.4089,-0.202,-0.032
1.4326,-0.2011,-0.0244
1.4531,-0.2006,-0.0203
1.4737,-0.1972,-0.0186
1.4954,-0.1891,-0.0176
1.5179,-0.1803,-0.0183
1.5394,-0.1742,-0.0203
1.5584,-0.1693,-0.0249
1.5748,-0.1652,-0.0318
1.5887,-0.1637,-0.0384
1.6056,-0.1647,-0.0481
1.6229,-0.1639,-0.064
1.6369,-0.1608,-0.0823
1.6461,-0.1571,-0.1002
1.65,-0.1524,-0.1165
1.6508,-0.1498,-0.1329
1.6449,-0.1463,-0.1524
1.6325,-0.1419,-0.1742
1.6176,-0.138,-0.1947
1.6014,-0.1375,-0.2128
1.5841,-0.1385,-0.227
1.5638,-0.1388,-0.237
1.5406,-0.1378,-0.2446
1.5145,-0.1358,-0.2489
1.4851,-0.1329,-0.2499
1.4531,-0.1309,-0.2494
1.4202,-0.1283,-0.2472
1.3864,-0.1253,-0.2438
1.3513,-0.1231,-0.2406
1.3156,-0.1204,-0.237
1.2785,-0.1175,-0.234
1.2411,-0.1148,-0.2316
1.2035,-0.1131,-0.2301
1.168,-0.1124,-0.2284
1.1324,-0.1112,-0.2272
1.0947,-0.1102,-0.2282
1.0596,-0.109,-0.2284
1.0246,-0.1065,-0.2287
0.9899,-0.1029,-0.2289
0.9565,-0.1004,-0.2279
0.9249,-0.0987,-0.2255
0.8946,-0.0958,-0.2235
0.8656,-0.0919,-0.2216
0.8372,-0.0872,-0.2209
0.8121,-0.0816,-0.2201
0.7903,-0.0745,-0.2189
0.7676,-0.0691,-0.2191
0.7446,-0.0645,-0.2204
0.7227,-0.0586,-0.2206
0.7019,-0.053,-0.2213
0.6809,-0.0459,-0.2201
0.6604,-0.0379,-0.2145
0.6411,-0.0286,-0.206
0.624,-0.0193,-0.1974
0.6113,-0.011,-0.1893
0.6027,-0.0029,-0.182
0.5954,0.0051,-0.1742
0.5888,0.0132,-0.1642
0.5858,0.021,-0.151
0.589,0.0291,-0.1373
0.599,0.0362,-0.1231
0.6191,0.0408,-0.108
0.6506,0.041,-0.095
0.6877,0.0381,-0.0867
0.7261,0.0344,-0.0816
0.7625,0.0308,-0.0809
0.7962,0.0274,-0.0831
0.828,0.0239,-0.0865
0.8582,0.0203,-0.0892
0.8856,0.0171,-0.0914
0.9118,0.0127,-0.0948
0.9369,0.0093,-0.098
0.9599,0.0066,-0.0992
0.9811,0.0037,-0.0997
1.0009,0.0007,-0.1002
1.0192,-0.0022,-0.0987
1.0361,-0.0056,-0.0975
1.0498,-0.009,-0.0958
1.0598,-0.0112,-0.0938
1.0679,-0.0137,-0.0914
1.0745,-0.0173,-0.0884
1.0793,-0.0205,-0.0865
1.083,-0.023,-0.084
1.0859,-0.0247,-0.0809
1.0867,-0.0269,-0.0772
1.0859,-0.0293,-0.0726
1.0842,-0.0332,-0.0669
1.083,-0.0359,-0.063
1.0806,-0.0388,-0.0611
1.0784,-0.0425,-0.0584
1.0757,-0.0469,-0.0537
1.0718,-0.052,-0.0491
1.0671,-0.0562,-0.0452
1.0632,-0.0606,-0.0415
1.0598,-0.066,-0.0388
1.0574,-0.0708,-0.0374
1.0549,-0.0755,-0.0359
1.0527,-0.0801,-0.0347
1.0508,-0.0836,-0.033
1.05,-0.0867,-0.0305
1.0493,-0.0892,-0.0286
1.0476,-0.0916,-0.0266
1.0454,-0.0936,-0.0259
1.0437,-0.0938,-0.0254
1.0422,-0.0936,-0.0247
1.04,-0.0921,-0.0242
1.0378,-0.0916,-0.0239
1.0346,-0.0928,-0.0232
1.031,-0.0931,-0.0222
1.0258,-0.0921,-0.021
1.02,-0.0904,-0.0191
1.0129,-0.0889,-0.0173
1.0053,-0.0887,-0.0149
0.9936,-0.0882,-0.0086
0.9843,-0.0865,-0.0046
0.9738,-0.085,0.0007
0.9621,-0.0853,0.0056
0.9499,-0.086,0.0103
0.9369,-0.0865,0.0151
0.9247,-0.0858,0.0213
0.9132,-0.0853,0.0281
0.9,-0.0855,0.0332
0.8841,-0.0853,0.0376
0.8685,-0.0848,0.041
0.8539,-0.0845,0.0454
0.8387,-0.0848,0.0511
0.8228,-0.0853,0.0564
0.8055,-0.0855,0.0608
0.7874,-0.0848,0.065
0.7681,-0.0836,0.0674
0.7495,-0.0838,0.0687
0.7322,-0.0833,0.0691
0.7144,-0.0823,0.0694
0.6977,-0.0816,0.0691
0.6816,-0.0806,0.0674
0.6655,-0.0801,0.0662
0.6494,-0.0784,0.0652
0.6345,-0.0774,0.0652
0.621,-0.077,0.0647
0.6093,-0.077,0.0645
0.5993,-0.0765,0.0643
0.589,-0.0743,0.0635
0.5851,-0.0696,0.0633
0.5844,-0.0672,0.0633
0.5788,-0.0684,0.0628
0.5751,-0.0691,0.0635
0.5697,-0.0716,0.063
0.5585,-0.0757,0.0586
0.548,-0.0772,0.0542
0.5465,-0.0733,0.0525
0.548,-0.0706,0.0511
0.5463,-0.0721,0.0496
0.5446,-0.0743,0.0496
0.545,-0.0748,0.0501
0.5487,-0.0733,0.0506
0.5565,-0.0718,0.0525
0.5658,-0.0699,0.055
0.5775,-0.0674,0.0574
0.5932,-0.066,0.0594
0.6095,-0.0638,0.0613
0.6262,-0.0616,0.0633
0.6428,-0.0589,0.064
0.6591,-0.0564,0.0643
0.6743,-0.0552,0.0638
0.6897,-0.054,0.0613
0.7043,-0.052,0.0586
0.7192,-0.0513,0.0564
0.7322,-0.0511,0.0545
0.7432,-0.0503,0.0523
0.7537,-0.0489,0.0493
0.7644,-0.0481,0.0472
0.7742,-0.0472,0.0452
0.7835,-0.0467,0.0442
0.7906,-0.0472,0.0428
0.7962,-0.0474,0.0423
0.7999,-0.0469,0.0423
0.8025,-0.0469,0.0415
0.805,-0.0474,0.0403
0.8052,-0.0479,0.0403
0.8052,-0.0489,0.0403
0.8047,-0.0508,0.0413
0.8038,-0.0525,0.0432
0.8025,-0.0535,0.044
0.8003,-0.0559,0.0442
0.7974,-0.0594,0.0447
0.795,-0.0625,0.0445
0.793,-0.0645,0.0445
0.7894,-0.0677,0.0454
0.7852,-0.0706,0.0462
0.7818,-0.0723,0.0462
0.7776,-0.0735,0.0462
0.7735,-0.0745,0.0469
0.7691,-0.0755,0.0486
0.7647,-0.0767,0.0501
0.7615,-0.0767,0.0518
0.7591,-0.077,0.0555
0.7571,-0.0779,0.0586
0.7552,-0.0794,0.0606
0.7537,-0.0809,0.0621
0.7539,-0.0823,0.064
0.7549,-0.0828,0.0657
0.7578,-0.0826,0.0665
0.7615,-0.0826,0.0667
0.7654,-0.0831,0.065
0.7698,-0.0833,0.0625
0.7749,-0.0838,0.0603
0.7818,-0.084,0.0589
0.7898,-0.0838,0.0567
0.7986,-0.0836,0.0533
0.8084,-0.0833,0.0506
0.8194,-0.0823,0.0486
0.8311,-0.0806,0.0469
0.8419,-0.0792,0.0447
0.8526,-0.0777,0.0423
0.8634,-0.0755,0.0413
0.8753,-0.0735,0.0401
0.8866,-0.0718,0.0398
0.8993,-0.0696,0.0406
0.9137,-0.0667,0.0418
0.9259,-0.0652,0.0423
0.9367,-0.0655,0.041
0.9482,-0.0652,0.0391
0.9621,-0.0643,0.0362
0.9777,-0.063,0.0344
0.9938,-0.0621,0.0332
1.01,-0.0603,0.0318
1.0261,-0.0591,0.0308
1.0422,-0.0567,0.0291
1.0591,-0.0552,0.0281
1.0764,-0.0552,0.0271
1.093,-0.054,0.0247
1.1087,-0.052,0.0232
1.1248,-0.0498,0.0217
1.1416,-0.0501,0.0195
1.1587,-0.0525,0.0164
1.1739,-0.0545,0.0139
1.1883,-0.0559,0.0144
1.201,-0.0577,0.0156
1.213,-0.0596,0.0193
1.2264,-0.0623,0.0239
1.2401,-0.0655,0.0303
1.2523,-0.0672,0.0376
1.2648,-0.0684,0.0462
1.2763,-0.0694,0.0564
1.2858,-0.0696,0.0643
1.2938,-0.0691,0.0723
1.2997,-0.0684,0.0809
1.3048,-0.0669,0.0897
1.31,-0.065,0.0967
1.3129,-0.0623,0.1026
1.3124,-0.0591,0.1073
1.3107,-0.0564,0.1112
1.3066,-0.053,0.1143
1.2997,-0.0493,0.116
1.2929,-0.0454,0.1165
1.286,-0.0418,0.116
1.2785,-0.0388,0.1156
1.2706,-0.0364,0.1163
1.2633,-0.034,0.118
1.257,-0.0327,0.1204
1.2508,-0.0325,0.1226
1.244,-0.033,0.1234
1.2372,-0.0347,0.1212
1.2315,-0.0366,0.1151
1.2254,-0.0379,0.1036
1.2174,-0.0384,0.0894
1.2093,-0.0364,0.0779
1.2027,-0.0327,0.0728
1.1978,-0.0291,0.0772
1.1951,-0.0276,0.086
1.1925,-0.0286,0.0904
1.189,-0.0308,0.0862
1.1868,-0.0337,0.0767
1.1878,-0.0359,0.0645
1.1915,-0.0381,0.0537
1.1976,-0.0401,0.0474
1.2052,-0.042,0.0462
1.2118,-0.0428,0.0489
1.2157,-0.0428,0.0535
1.2196,-0.042,0.0577
1.2228,-0.0406,0.0599
1.2254,-0.0381,0.0591
1.2279,-0.0344,0.0547
1.2293,-0.031,0.0464
1.2308,-0.0269,0.0369
1.2328,-0.0222,0.0286
1.2374,-0.0205,0.0198
1.2438,-0.0215,0.0093
1.2523,-0.0261,-0.0012
1.2638,-0.0342,-0.011
1.2819,-0.0467,-0.0193
1.3066,-0.0623,-0.0257
1.3368,-0.0809,-0.0281
1.3681,-0.0994,-0.0279
1.4158,-0.1246,-0.0298
1.4448,-0.1385,-0.0332
1.4705,-0.1498,-0.0352
1.4961,-0.1605,-0.0376
1.5225,-0.1715,-0.045
1.5482,-0.1803,-0.0559
1.5675,-0.1864,-0.0674
1.5843,-0.1881,-0.077
1.6005,-0.1874,-0.0865
1.6139,-0.1864,-0.0967
1.6244,-0.1845,-0.1085
1.631,-0.1803,-0.1226
1.6327,-0.1749,-0.1405
1.6293,-0.1698,-0.1608
1.6217,-0.1649,-0.183
1.6088,-0.1593,-0.2062
1.5914,-0.1529,-0.2287
1.5716,-0.1456,-0.2492
1.5516,-0.1373,-0.2678
1.5318,-0.1295,-0.2836
1.5123,-0.1231,-0.2963
1.4915,-0.1168,-0.3039
1.4697,-0.1092,-0.3061
1.4475,-0.1024,-0.3046
1.4238,-0.0953,-0.302
1.3969,-0.0877,-0.2976
1.3674,-0.0806,-0.291
1.3383,-0.0745,-0.2839
1.3083,-0.0677,-0.2753
1.2772,-0.0618,-0.2656
1.2462,-0.0574,-0.2553
1.2154,-0.0533,-0.2448
1.1846,-0.0498,-0.2328
1.1531,-0.0469,-0.2201
1.1219,-0.044,-0.2079
1.0906,-0.0413,-0.195
1.0598,-0.0396,-0.1818
1.0298,-0.0398,-0.1688
1.0009,-0.0398,-0.1571
0.9723,-0.0403,-0.1466
0.9452,-0.0406,-0.1385
0.9196,-0.0415,-0.1319
0.8942,-0.044,-0.127
0.8688,-0.0454,-0.1248
0.8453,-0.0462,-0.1239
0.8233,-0.0472,-0.1226
0.8025,-0.0489,-0.1222
0.784,-0.0518,-0.1236
0.7681,-0.0547,-0.1266
0.7534,-0.0569,-0.1307
0.7393,-0.0596,-0.1349
0.7288,-0.063,-0.139
0.72,-0.0662,-0.1441
0.7119,-0.0696,-0.1507
0.7046,-0.0728,-0.1566
0.6999,-0.0767,-0.1615
0.6973,-0.0818,-0.1656
0.6965,-0.0875,-0.1713
0.698,-0.0931,-0.1783
0.7009,-0.0989,-0.1837
0.7065,-0.1046,-0.1876
0.7151,-0.1099,-0.1908
0.7249,-0.1153,-0.193
0.7366,-0.1219,-0.1932
0.7512,-0.1283,-0.1937
0.7669,-0.1346,-0.1932
0.7852,-0.1412,-0.191
0.8052,-0.1471,-0.1871
0.8267,-0.1517,-0.182
0.8497,-0.1556,-0.1769
0.8724,-0.1586,-0.172
0.8951,-0.1615,-0.1669
0.9186,-0.1649,-0.1625
0.9413,-0.1669,-0.1595
0.9635,-0.1683,-0.1561
0.9855,-0.1698,-0.1522
1.0073,-0.1713,-0.1493
1.0293,-0.1722,-0.1456
1.05,-0.1727,-0.1395
1.0688,-0.1735,-0.1314
1.0874,-0.1735,-0.1229
1.105,-0.1727,-0.1134
1.1211,-0.1715,-0.1036
1.136,-0.17,-0.0933
1.1485,-0.1678,-0.0821
1.1585,-0.1654,-0.0699
1.1661,-0.163,-0.0586
1.1702,-0.161,-0.0484
1.1722,-0.1595,-0.0388
1.1727,-0.1578,-0.0291
1.171,-0.1566,-0.02
1.1671,-0.1559,-0.0125
1.1612,-0.1551,-0.0061
1.1539,-0.1551,0.0007
1.1456,-0.1559,0.0073
1.136,-0.1568,0.0125
1.1245,-0.1583,0.0169
1.1121,-0.1593,0.021
1.0979,-0.16,0.0235
1.0828,-0.16,0.0252
1.0669,-0.16,0.0266
1.0503,-0.1595,0.0293
1.0329,-0.1588,0.032
1.0158,-0.1578,0.0349
0.9985,-0.1559,0.0376
0.9814,-0.1542,0.0401
0.9638,-0.1529,0.0432
0.9469,-0.152,0.0469
0.9318,-0.1515,0.0508
0.9164,-0.15,0.0545
0.9005,-0.1473,0.0599
0.8846,-0.1441,0.0652
0.869,-0.1415,0.0718
0.8539,-0.138,0.0794
0.8389,-0.1341,0.0875
0.8245,-0.1292,0.0945
0.8104,-0.1234,0.1016
0.7972,-0.1187,0.1085
0.7847,-0.1146,0.1136
0.772,-0.1094,0.1168
0.7595,-0.1043,0.1175
0.7466,-0.0989,0.1175
0.7354,-0.0923,0.117
0.7244,-0.0862,0.1165
0.7144,-0.0814,0.1158
0.7048,-0.0762,0.1148
0.6955,-0.0708,0.1136
0.6865,-0.0655,0.1114
0.677,-0.0591,0.1094
0.667,-0.053,0.1058
0.6574,-0.0469,0.1014
0.6489,-0.0408,0.0958
0.6401,-0.0337,0.0899
0.6315,-0.0264,0.0855
0.623,-0.0205,0.0796
0.6174,-0.0191,0.0716
0.6125,-0.0193,0.0616
0.6071,-0.0166,0.0545
0.6012,-0.0156,0.0523
0.5946,-0.0151,0.0498
0.5878,-0.011,0.0481
0.5817,-0.0056,0.0474
0.5761,-0.0005,0.0464
0.5724,0.0029,0.0452
0.57,0.0049,0.0452
0.568,0.0076,0.0459
0.5663,0.01,0.0469
0.5646,0.0115,0.0474
0.5653,0.0105,0.0469
0.5692,0.0103,0.0479
0.5736,0.0103,0.0498
0.5783,0.0095,0.053
0.5846,0.0088,0.0552
0.5939,0.0068,0.0555
0.6044,0.0032,0.0552
0.6159,-0.0027,0.0537
0.6293,-0.0095,0.0506
0.6452,-0.0166,0.0467
0.6613,-0.0222,0.0428
0.6772,-0.0283,0.0379
0.6924,-0.0352,0.0325
0.7075,-0.0418,0.0271
0.7229,-0.0474,0.0203
0.7371,-0.0523,0.0127
0.7498,-0.0577,0.0046
0.762,-0.0623,-0.0039
0.7747,-0.065,-0.0117
0.7859,-0.0682,-0.0188
0.7972,-0.0711,-0.0259
0.8072,-0.074,-0.0318
0.816,-0.0762,-0.0366
0.8233,-0.0787,-0.041
0.8258,-0.086,-0.0459
0.8272,-0.0882,-0.0481
0.8353,-0.0838,-0.0454
0.8438,-0.0821,-0.043
0.8575,-0.0779,-0.0374
0.8639,-0.0777,-0.033
0.8707,-0.0748,-0.0269
0.8768,-0.074,-0.02
0.88,-0.0745,-0.0147
0.8834,-0.0721,-0.0076
0.8846,-0.0728,-0.002
0.8844,-0.0735,0.0017
0.8868,-0.0716,0.0076
0.8876,-0.0728,0.0137
0.8854,-0.0767,0.0183
0.8817,-0.0801,0.0215
0.879,-0.0801,0.0252
0.8783,-0.0799,0.0298
0.8778,-0.0806,0.0332
0.8758,-0.0833,0.0362
0.8741,-0.0875,0.0374
0.8724,-0.0921,0.0379
0.8697,-0.0958,0.0371
0.8668,-0.0989,0.0342
0.8648,-0.1036,0.03
0.8636,-0.1085,0.0257
0.8617,-0.1114,0.02
0.8602,-0.1134,0.0144
0.8597,-0.1163,0.0103
0.8582,-0.1229,0.0051
0.8543,-0.1314,-0.0017
0.8517,-0.138,-0.0076
0.8529,-0.1417,-0.0112
0.858,-0.1424,-0.0129
0.8651,-0.1439,-0.0144
0.8707,-0.1454,-0.0164
0.8751,-0.1459,-0.0178
0.8807,-0.1463,-0.0191
0.8861,-0.1466,-0.0193
0.8912,-0.1466,-0.0191
0.8978,-0.1459,-0.0186
0.9054,-0.1451,-0.0188
0.9132,-0.1463,-0.02
0.9215,-0.1468,-0.02
0.9313,-0.1471,-0.0195
0.9428,-0.1488,-0.0173
0.9547,-0.1488,-0.0139
0.9682,-0.1485,-0.0083
0.9826,-0.149,-0.0024
0.9977,-0.1502,0.0039
1.0144,-0.1517,0.011
1.0317,-0.1522,0.0198
1.0491,-0.1537,0.0286
1.0674,-0.1561,0.0376
1.0869,-0.1598,0.0474
1.106,-0.1634,0.0574
1.1253,-0.1681,0.0672
1.1429,-0.1742,0.077
1.159,-0.1818,0.0865
1.1744,-0.1891,0.096
1.1886,-0.1952,0.1051
1.203,-0.2003,0.1136
1.2179,-0.2057,0.1214
1.2308,-0.2099,0.1275
1.2416,-0.2143,0.1317
1.2516,-0.2189,0.1349
1.2616,-0.2196,0.1397
1.2723,-0.2172,0.1461
1.2826,-0.2147,0.1515
1.2909,-0.2138,0.1542
1.297,-0.2133,0.1564
1.3002,-0.2103,0.1573
1.2943,-0.2096,0.1544
1.2885,-0.2094,0.15
1.2926,-0.202,0.1473
1.2958,-0.1957,0.1454
1.2892,-0.1952,0.1415
1.2831,-0.1913,0.1395
1.2824,-0.1823,0.1393
1.2804,-0.1769,0.1378
1.2719,-0.1764,0.1344
1.2579,-0.1781,0.129
1.2418,-0.1813,0.1222
1.2242,-0.1854,0.1163
1.2069,-0.1906,0.1129
1.1895,-0.1959,0.1107
1.1722,-0.2003,0.1107
1.1551,-0.2038,0.1124
1.1385,-0.2077,0.1146
1.1226,-0.2106,0.1175
1.1074,-0.2123,0.1209
1.0923,-0.2147,0.1246
1.0781,-0.2165,0.1297
1.0647,-0.2177,0.1341
1.0525,-0.2177,0.1383
1.0415,-0.2169,0.1444
1.0312,-0.2147,0.15
1.0232,-0.2118,0.1534
1.0183,-0.2091,0.1534
1.0153,-0.2072,0.1502
1.0151,-0.2052,0.1471
1.0175,-0.2025,0.1444
1.0214,-0.2001,0.1405
1.0258,-0.1991,0.1349
1.0278,-0.1986,0.127
1.0285,-0.1972,0.1185
1.0276,-0.1935,0.1073
1.0251,-0.1879,0.0931
1.0219,-0.1813,0.0796
1.018,-0.1759,0.0647
1.0151,-0.172,0.0472
1.0129,-0.1698,0.0279
1.0131,-0.1703,0.0068
1.0166,-0.1722,-0.0154
1.0234,-0.1761,-0.0364
1.0324,-0.1825,-0.0584
1.0451,-0.1886,-0.0801
1.0605,-0.1935,-0.0989
1.0779,-0.1981,-0.1143
1.0969,-0.2028,-0.1287
1.1172,-0.2062,-0.1405
1.1363,-0.2079,-0.1502
1.1558,-0.2094,-0.1571
1.1756,-0.2099,-0.159
1.1937,-0.2091,-0.161
1.212,-0.2084,-0.1649
1.2313,-0.2069,-0.1673
1.2513,-0.2062,-0.1671
1.2721,-0.2052,-0.1639
1.2941,-0.2045,-0.163
1.31,-0.2045,-0.1673
1.3183,-0.2086,-0.1752
1.3356,-0.2138,-0.1815
1.3632,-0.215,-0.1859
1.394,-0.2143,-0.1874
1.4233,-0.2152,-0.184
1.4517,-0.2174,-0.1774
1.479,-0.2191,-0.1688
1.5044,-0.2211,-0.161
1.5281,-0.2223,-0.1524
1.5494,-0.2233,-0.1449
1.565,-0.2235,-0.1417
1.5736,-0.2226,-0.1439
1.5741,-0.2199,-0.1502
1.567,-0.2152,-0.159
1.5545,-0.2089,-0.1688
1.5372,-0.2025,-0.1805
1.5167,-0.1964,-0.1945
1.4927,-0.1901,-0.2084
1.4666,-0.1842,-0.2218
1.4375,-0.1781,-0.235
1.406,-0.1722,-0.247
1.3728,-0.1671,-0.2555
1.3364,-0.1654,-0.2631
1.3007,-0.1603,-0.269
1.2706,-0.1515,-0.2734
1.244,-0.1459,-0.2775
1.2179,-0.1444,-0.2834
1.1903,-0.1432,-0.291
1.1639,-0.1373,-0.2968
1.1404,-0.1322,-0.302
1.1177,-0.129,-0.3088
1.0952,-0.1244,-0.3156
1.0737,-0.1187,-0.3215
1.0532,-0.1136,-0.3261
1.0329,-0.109,-0.3308
1.0126,-0.1038,-0.334
0.9936,-0.098,-0.3362
0.9758,-0.0919,-0.3374
0.9579,-0.086,-0.3384
0.9423,-0.0792,-0.3371
0.9289,-0.0728,-0.3327
0.9176,-0.0672,-0.3283
0.9071,-0.0616,-0.3222
0.8986,-0.0557,-0.3144
0.8922,-0.0498,-0.3054
0.8868,-0.0445,-0.2956
0.8827,-0.0388,-0.2839
0.881,-0.0335,-0.2712
0.8807,-0.0283,-0.2577
0.8805,-0.0203,-0.2362
0.8832,-0.0149,-0.2213
0.8861,-0.0103,-0.2047
0.8888,-0.0056,-0.1867
0.8934,0.0,-0.1681
0.8978,0.0049,-0.1483
0.9005,0.0083,-0.1283
0.903,0.0115,-0.109
0.9052,0.0164,-0.0916
0.9081,0.0203,-0.0748
0.9093,0.0239,-0.0579
0.9093,0.0279,-0.0406
0.9098,0.0303,-0.0237
0.911,0.0322,-0.009
0.9122,0.0352,0.0039
0.9132,0.0371,0.0176
0.9144,0.0386,0.03
0.9132,0.0391,0.0393
0.912,0.0398,0.0469
0.912,0.0403,0.053
0.9115,0.0396,0.0572
0.9108,0.0386,0.0596
0.9098,0.0374,0.0601
0.9096,0.0359,0.0594
0.91,0.0332,0.0562
0.9108,0.0293,0.0503
0.9125,0.0252,0.044
0.9152,0.02,0.0381
0.9181,0.0137,0.0315
0.9223,0.0073,0.0244
0.9259,0.0015,0.0181
0.9289,-0.0054,0.0117
0.9325,-0.012,0.0046
0.9357,-0.0191,-0.0017
0.9394,-0.0261,-0.0071
0.9411,-0.033,-0.0125
0.9408,-0.0401,-0.0164
0.9396,-0.0467,-0.0181
0.9379,-0.0537,-0.0195
0.9359,-0.0616,-0.0195
0.9335,-0.0689,-0.0178
0.9311,-0.0772,-0.0151
0.9289,-0.0858,-0.0125
0.9247,-0.0936,-0.009
0.9203,-0.1014,-0.0054
0.9154,-0.1094,-0.0032
0.9115,-0.1168,0.0002
0.9088,-0.1246,0.0037
0.9059,-0.1329,0.0071
0.9022,-0.1407,0.012
0.8981,-0.1476,0.0164
0.8937,-0.1537,0.0195
0.8888,-0.159,0.0215
0.8844,-0.1637,0.0232
0.8795,-0.1683,0.0252
0.8722,-0.173,0.0264
0.8651,-0.1766,0.0279
0.8585,-0.1793,0.0276
0.8487,-0.1842,0.0264
0.8367,-0.1876,0.0247
0.8282,-0.1871,0.0242
0.8231,-0.1864,0.023
0.8126,-0.1903,0.0208
0.8003,-0.193,0.0191
0.7928,-0.1908,0.0178
0.7894,-0.1857,0.0169
0.7813,-0.1845,0.0154
0.7705,-0.1849,0.0147
0.7603,-0.1815,0.0139
0.7525,-0.1757,0.0122
0.7481,-0.1676,0.0105
0.7483,-0.1571,0.0105
0.7451,-0.1488,0.009
0.7356,-0.1444,0.0064
0.7249,-0.1407,0.0066
0.7158,-0.1346,0.0061
0.7112,-0.1258,0.0049
0.7122,-0.1151,0.0034
0.7078,-0.1063,0.0024
0.6987,-0.1014,0.0024
0.6911,-0.0965,0.0029
0.6855,-0.0901,0.0022
0.6816,-0.0816,0.0007
0.6792,-0.0735,0.0002
0.6777,-0.065,-0.001
0.6789,-0.0567,-0.002
0.6806,-0.0472,-0.0024
0.6814,-0.0381,-0.0032
0.6794,-0.0305,-0.0039
0.6779,-0.0237,-0.0037
0.6772,-0.0171,-0.0044
0.6782,-0.0093,-0.0056
0.6801,-0.002,-0.0064
0.6816,0.0059,-0.0068
0.6841,0.0139,-0.0093
0.6877,0.021,-0.012
0.6902,0.0286,-0.0137
0.6946,0.0347,-0.0161
0.699,0.0393,-0.0188
0.7024,0.0432,-0.0205
0.7056,0.0457,-0.0213
0.7087,0.0476,-0.0225
0.7117,0.0493,-0.0247
0.7148,0.0508,-0.0271
0.7187,0.0528,-0.0286
0.729,0.0596,-0.0276
0.742,0.0665,-0.0254
0.7512,0.0674,-0.0254
0.7571,0.0638,-0.0276
0.7617,0.0589,-0.0303
0.7669,0.0537,-0.0335
0.7727,0.0489,-0.0366
0.7779,0.0415,-0.0396
0.7835,0.0335,-0.0425
0.7891,0.0252,-0.045
0.795,0.0173,-0.0454
0.7999,0.0083,-0.0454
0.8045,-0.0007,-0.0445
0.8104,-0.0098,-0.0432
0.817,-0.0188,-0.0428
0.8216,-0.0281,-0.041
0.8243,-0.0381,-0.0396
0.8255,-0.0474,-0.0379
0.8275,-0.0564,-0.0354
0.8299,-0.0652,-0.0315
0.8316,-0.0738,-0.0264
0.8331,-0.0821,-0.0217
0.8341,-0.0897,-0.0183
0.8353,-0.0967,-0.0156
0.8372,-0.1031,-0.0132
0.8389,-0.1075,-0.0098
0.8397,-0.1102,-0.0061
0.8414,-0.1121,-0.0017
0.8438,-0.1143,0.0042
0.8475,-0.1151,0.0105
0.8531,-0.1121,0.0164
0.8595,-0.1068,0.0215
0.8666,-0.0997,0.0269
0.8741,-0.0938,0.033
0.8817,-0.0892,0.0386
0.8907,-0.085,0.0437
0.9008,-0.0816,0.0462
0.9105,-0.0782,0.0469
0.9191,-0.0755,0.0467
0.9274,-0.0738,0.045
0.9359,-0.0726,0.0413
0.9442,-0.0713,0.0376
0.9516,-0.0696,0.034
0.9582,-0.0689,0.0293
0.9648,-0.0684,0.0249
0.9697,-0.0667,0.0215
0.9723,-0.0655,0.0171
0.9738,-0.0643,0.0139
0.9745,-0.063,0.0117
0.974,-0.0618,0.0112
0.9721,-0.0591,0.0122
0.9692,-0.0564,0.0137
0.9665,-0.0547,0.0154
0.9631,-0.0533,0.0188
0.9587,-0.0518,0.0249
0.9533,-0.0501,0.0318
0.9484,-0.0476,0.0376
0.9447,-0.0457,0.0432
0.942,-0.0452,0.0501
0.9389,-0.044,0.0564
0.9359,-0.0415,0.0618
0.9328,-0.0388,0.0669
0.9293,-0.0362,0.0713
0.9257,-0.0332,0.075
0.9235,-0.0276,0.0796
0.9257,-0.0173,0.0853
0.9293,-0.0078,0.0889
0.9274,0.0005,0.0931
0.9237,0.0002,0.0967
0.9205,-0.002,0.1024
0.9183,-0.0032,0.1087
0.9176,-0.0042,0.1163
0.9174,-0.0061,0.1231
0.9166,-0.0081,0.1305
0.9159,-0.0112,0.1378
0.9166,-0.0149,0.1434
0.9198,-0.0198,0.1476
0.9242,-0.0242,0.1502
0.9286,-0.0281,0.1522
0.9347,-0.0327,0.1539
0.9418,-0.0379,0.1544
0.9499,-0.0432,0.1534
0.9587,-0.0496,0.1527
0.9667,-0.0552,0.1524
0.9723,-0.0591,0.151
0.9789,-0.0633,0.1485
0.9875,-0.0689,0.1468
0.9965,-0.0728,0.1459
1.0056,-0.0738,0.1449
1.0144,-0.0723,0.1446
1.0239,-0.0696,0.1441
1.0339,-0.0672,0.1432
1.0447,-0.064,0.1405
1.0554,-0.0606,0.1356
1.0649,-0.0569,0.13
1.074,-0.053,0.1244
1.0845,-0.0484,0.119
1.0952,-0.0425,0.1136
1.105,-0.0369,0.1077
1.116,-0.031,0.1036
1.1265,-0.0244,0.1014
1.1365,-0.0178,0.0994
1.1473,-0.012,0.0989
1.157,-0.0064,0.0999
1.1663,-0.0005,0.1009
1.1749,0.0046,0.1014
1.1829,0.0086,0.1016
1.1888,0.0112,0.1009
1.192,0.0122,0.0987
1.1947,0.0125,0.096
1.1966,0.012,0.0931
1.1973,0.0115,0.0889
1.1966,0.0103,0.0843
1.1944,0.0083,0.0804
1.1912,0.0068,0.0767
1.1881,0.0061,0.0745
1.1854,0.0042,0.0735
1.1824,0.0007,0.0726
1.1795,-0.0039,0.0713
1.1766,-0.0076,0.0674
1.1741,-0.0132,0.0628
1.1722,-0.0198,0.0599
1.1722,-0.0257,0.0606
1.1754,-0.0298,0.0672
1.1805,-0.0283,0.0833
1.1873,-0.0308,0.1033
1.1947,-0.0366,0.1197
1.2013,-0.0406,0.1327
1.2061,-0.0491,0.1432
1.2105,-0.0591,0.149
1.2149,-0.0682,0.1488
1.2213,-0.0752,0.1432
1.2303,-0.0838,0.1324
1.2403,-0.0933,0.1173
1.2511,-0.1036,0.0999
1.2655,-0.1158,0.0811
1.2851,-0.1336,0.0635
1.3083,-0.1564,0.0479
1.3334,-0.181,0.0354
1.3618,-0.2077,0.0269
1.394,-0.237,0.0242
1.4297,-0.2675,0.0257
1.4666,-0.2993,0.0271
1.5044,-0.3318,0.0298
1.5394,-0.3594,0.031
1.5731,-0.3833,0.0293
1.6053,-0.4038,0.0239
1.6364,-0.42,0.0171
1.6676,-0.4334,0.0083
1.6977,-0.442,-0.0066
1.7224,-0.4429,-0.0252
1.7397,-0.4356,-0.0467
1.7519,-0.4241,-0.0687
1.7617,-0.4119,-0.0911
1.771,-0.399,-0.1148
1.7773,-0.3826,-0.1415
1.7793,-0.3647,-0.1717
1.7756,-0.3406,-0.2033
1.7617,-0.3083,-0.2343
1.7378,-0.2697,-0.2626
1.7062,-0.2306,-0.2851
1.6691,-0.1947,-0.2998
1.6288,-0.1612,-0.3078
1.5858,-0.1312,-0.3103
1.5404,-0.1055,-0.3064
1.4925,-0.0826,-0.2981
1.4424,-0.0603,-0.2866
1.3906,-0.0391,-0.2746
1.339,-0.0198,-0.2629
1.2872,-0.0024,-0.2511
1.2369,0.0137,-0.2402
1.1886,0.0281,-0.2294
1.1416,0.0413,-0.2194
1.0972,0.0535,-0.2118
1.0564,0.064,-0.206
1.0185,0.0713,-0.2001
0.9838,0.0762,-0.1957
0.953,0.0809,-0.1915
0.9259,0.0848,-0.1869
0.9012,0.0872,-0.1805
0.8785,0.0889,-0.1742
0.8582,0.0901,-0.1688
0.8394,0.0899,-0.1652
0.8214,0.0894,-0.1617
0.8047,0.0887,-0.1593
0.7901,0.088,-0.1573
0.7769,0.0867,-0.1559
0.7642,0.085,-0.1551
0.7547,0.0836,-0.1549
0.7466,0.0814,-0.1559
0.7407,0.0792,-0.1571
0.7359,0.0777,-0.1595
0.7329,0.0757,-0.163
0.7319,0.0726,-0.1686
0.7315,0.0691,-0.173
0.7344,0.0657,-0.1764
0.7434,0.0606,-0.1805
0.7591,0.053,-0.1827
0.7796,0.0437,-0.1854
0.8006,0.0337,-0.191
0.8199,0.023,-0.1979
0.8382,0.0129,-0.2042
0.8563,0.0032,-0.2111
0.8734,-0.0064,-0.2172
0.892,-0.0166,-0.2223
0.9118,-0.0264,-0.2267
0.9311,-0.0352,-0.2287
0.9511,-0.0437,-0.2289
0.9709,-0.0525,-0.2287
0.9907,-0.0606,-0.2274
1.0122,-0.0689,-0.2233
1.0334,-0.0772,-0.2169
1.0537,-0.084,-0.2099
1.073,-0.0916,-0.2016
1.0923,-0.0985,-0.1906
1.1104,-0.1051,-0.1781
1.1287,-0.1109,-0.1634
1.1446,-0.116,-0.148
1.1592,-0.1212,-0.1317
1.1712,-0.1261,-0.1131
1.1817,-0.1314,-0.0941
1.1903,-0.1361,-0.0767
1.1961,-0.1407,-0.0601
1.1986,-0.1444,-0.0437
1.1983,-0.1463,-0.0288
1.1947,-0.148,-0.0151
1.1888,-0.1505,-0.0032
1.181,-0.1539,0.0086
1.1705,-0.1586,0.0188
1.1587,-0.1632,0.0271
1.1446,-0.1676,0.0344
1.1297,-0.1715,0.0415
1.115,-0.1752,0.0486
1.0991,-0.1793,0.0542
1.0828,-0.1832,0.0596
1.0669,-0.1854,0.065
1.0503,-0.1871,0.0701
1.0319,-0.1898,0.0738
1.0124,-0.192,0.0757
0.9931,-0.1945,0.0774
0.9733,-0.1979,0.0789
0.953,-0.2011,0.0794
0.9335,-0.2038,0.0799
0.9147,-0.205,0.0804
0.8959,-0.2057,0.0799
0.867,-0.2077,0.0801
0.8477,-0.2086,0.0818
0.8284,-0.2094,0.0826
0.8091,-0.2099,0.084
0.7896,-0.2091,0.0853
0.771,-0.2077,0.0862
0.7539,-0.2062,0.0862
0.7371,-0.205,0.0862
0.7209,-0.2033,0.0877
0.7051,-0.2008,0.0901
0.6907,-0.1989,0.0928
0.6762,-0.1962,0.095
0.6599,-0.1932,0.0948
0.6442,-0.1898,0.0938
0.6301,-0.1854,0.0928
0.6186,-0.1798,0.0936
0.6113,-0.1754,0.0948
0.6078,-0.1717,0.0938
0.6012,-0.1647,0.0938
0.592,-0.1559,0.0965
0.5829,-0.1466,0.1019
0.5744,-0.1375,0.1063
0.567,-0.1295,0.1065
0.5617,-0.1246,0.1046
0.556,-0.1207,0.1033
0.5494,-0.1148,0.1041
0.5419,-0.108,0.1048
0.5341,-0.1004,0.107
0.5272,-0.0933,0.1102
0.5196,-0.0862,0.1112
0.5126,-0.0799,0.1109
0.5038,-0.0728,0.1102
0.4957,-0.066,0.1099
0.4889,-0.0596,0.1097
0.482,-0.0533,0.1073
0.4754,-0.0472,0.1043
0.4703,-0.0437,0.1021
0.4664,-0.0413,0.0977
0.4637,-0.0376,0.0914
0.4605,-0.0327,0.0836
0.4586,-0.0298,0.076
0.4593,-0.0288,0.0691
0.4615,-0.0281,0.0599
0.4632,-0.0269,0.0493
0.4656,-0.0266,0.0403
0.4693,-0.0269,0.0322
0.4749,-0.0274,0.0261
0.4823,-0.0274,0.0205
0.4913,-0.0264,0.0134
0.5028,-0.0266,0.0054
0.5167,-0.0293,-0.0027
0.5323,-0.0335,-0.0105
0.5529,-0.0398,-0.0186
0.5771,-0.0493,-0.0261
0.6015,-0.0608,-0.0335
0.6259,-0.074,-0.0406
0.6496,-0.0865,-0.0469
0.6726,-0.0982,-0.0528
0.6951,-0.108,-0.0574
0.7163,-0.1151,-0.0611
0.7368,-0.1197,-0.0628
0.7561,-0.1239,-0.064
0.774,-0.1275,-0.0645
0.7906,-0.1302,-0.063
0.8062,-0.1324,-0.0608
0.8211,-0.1341,-0.0589
0.836,-0.1353,-0.0569
0.8507,-0.1351,-0.054
0.8634,-0.1353,-0.0511
0.8753,-0.1358,-0.0457
0.8873,-0.1363,-0.0388
0.8981,-0.1366,-0.0313
0.9086,-0.138,-0.0252
0.9157,-0.139,-0.021
0.9191,-0.1395,-0.0164
0.9245,-0.1373,-0.0107
0.9345,-0.1309,-0.0042
0.945,-0.1251,0.0005
0.9494,-0.1248,0.0024
0.9489,-0.1241,0.0046
0.9523,-0.1182,0.0088
0.9569,-0.1121,0.0129
0.9574,-0.1109,0.0147
0.9545,-0.1099,0.0139
0.9543,-0.1055,0.0151
0.9557,-0.1016,0.0166
0.9533,-0.1002,0.0151
0.9496,-0.096,0.0142
0.9489,-0.0911,0.0139
0.9457,-0.0884,0.0137
0.943,-0.084,0.0117
0.9425,-0.0809,0.0105
0.9394,-0.0796,0.0088
0.9374,-0.0784,0.0073
0.9367,-0.0772,0.0071
0.9352,-0.0762,0.0071
0.9347,-0.075,0.0071
0.9352,-0.0752,0.0073
0.9359,-0.075,0.0068
0.9357,-0.075,0.0076
0.9337,-0.0752,0.0073
0.9325,-0.075,0.0073
0.9313,-0.0743,0.0076
0.9289,-0.0748,0.0064
0.9274,-0.0757,0.0071
0.9264,-0.077,0.0095
0.9252,-0.0789,0.0117
0.9225,-0.0814,0.0151
0.9205,-0.0848,0.0171
0.9191,-0.0889,0.0183
0.9176,-0.0933,0.02
0.9169,-0.0987,0.0217
0.9164,-0.1031,0.0232
0.9176,-0.1073,0.0244
0.9208,-0.1114,0.0254
0.9252,-0.1163,0.0259
0.9298,-0.1224,0.0264
0.935,-0.1273,0.0269
0.9425,-0.1314,0.0279
0.9518,-0.1363,0.0293
0.9631,-0.1422,0.0305
0.9755,-0.1495,0.0325
0.9887,-0.1559,0.0362
1.0024,-0.161,0.041
1.0175,-0.1669,0.0459
1.0312,-0.1754,0.0511
1.0432,-0.1857,0.0555
1.0532,-0.195,0.0601
1.0684,-0.1964,0.0694
1.0874,-0.1981,0.0811
1.1072,-0.2013,0.0909
1.1299,-0.2038,0.1002
1.1504,-0.2096,0.1077
1.1705,-0.2138,0.1131
1.1907,-0.2169,0.1175
1.2093,-0.2235,0.1187
1.2286,-0.2272,0.1178
1.2484,-0.2294,0.1165
1.2636,-0.2358,0.1109
1.2787,-0.2394,0.1043
1.296,-0.2397,0.1002
1.3061,-0.2433,0.0945
1.3127,-0.2475,0.0872
1.3241,-0.2472,0.0809
1.3312,-0.2487,0.074
1.3342,-0.2521,0.0643
1.3405,-0.2519,0.0547
1.3422,-0.2538,0.045
1.3425,-0.2548,0.0352
1.3456,-0.2536,0.0259
1.3449,-0.2536,0.0159
1.3454,-0.2504,0.0076
1.3422,-0.2492,0.0005
1.339,-0.2458,-0.0029
1.3378,-0.2446,-0.0044
1.3339,-0.2409,-0.0044
1.3295,-0.2323,-0.0012
1.3268,-0.2235,0.0022
1.3239,-0.2157,0.0054
1.3205,-0.2081,0.0093
1.3166,-0.2025,0.01
1.3122,-0.2003,0.0073
1.3097,-0.1998,0.0039
1.3097,-0.2013,0.0
1.3087,-0.2023,-0.0039
1.3061,-0.2025,-0.0064
1.3029,-0.2045,-0.009
1.2965,-0.206,-0.0086
1.2875,-0.206,-0.0076
1.278,-0.2033,-0.0095
1.2679,-0.1969,-0.0127
1.2572,-0.1871,-0.0154
1.2482,-0.1754,-0.0178
1.2396,-0.1656,-0.0217
1.2323,-0.1644,-0.0303
1.2274,-0.1742,-0.0474
1.2242,-0.1906,-0.073
1.2223,-0.2103,-0.1021
1.2254,-0.2399,-0.149
1.2291,-0.2573,-0.1788
1.2342,-0.2717,-0.2052
1.2408,-0.2819,-0.2299
1.2491,-0.2878,-0.2511
1.2609,-0.2922,-0.2678
1.2755,-0.2968,-0.2812
1.2943,-0.3005,-0.2885
1.3144,-0.3003,-0.2941
1.3373,-0.2981,-0.2981
1.3623,-0.2939,-0.2988
1.3869,-0.2878,-0.2985
1.4074,-0.2819,-0.2985
1.4255,-0.2797,-0.3017
1.4475,-0.2751,-0.3027
1.4729,-0.2675,-0.3032
1.4978,-0.2577,-0.3037
1.5206,-0.246,-0.3027
1.5408,-0.2321,-0.2988
1.5579,-0.2165,-0.2922
1.5714,-0.1994,-0.2844
1.5799,-0.1837,-0.2775
1.5836,-0.1676,-0.27
1.5833,-0.1512,-0.2621
1.5794,-0.1378,-0.2543
1.5704,-0.1248,-0.2453
1.557,-0.1121,-0.2365
1.5379,-0.0982,-0.2294
1.5108,-0.0826,-0.2243
1.4781,-0.0665,-0.2209
1.4426,-0.0537,-0.2179
1.4062,-0.043,-0.215
1.3681,-0.0322,-0.2113
1.33,-0.0227,-0.2064
1.2926,-0.0151,-0.1996
1.2543,-0.0098,-0.191
1.2157,-0.0064,-0.183
1.1758,-0.0049,-0.1744
1.136,-0.0064,-0.1666
1.0977,-0.0093,-0.1603
1.0608,-0.011,-0.1532
1.0251,-0.0134,-0.1459
0.9926,-0.0198,-0.1385
0.9616,-0.0242,-0.1305
0.9323,-0.0257,-0.12
0.9032,-0.0271,-0.1077
0.8763,-0.0288,-0.0958
0.8517,-0.0291,-0.084
0.8267,-0.0286,-0.0735
0.804,-0.0279,-0.0633
0.7815,-0.0286,-0.0513
0.7593,-0.0303,-0.0403
0.739,-0.0327,-0.0327
0.7217,-0.0347,-0.0264
0.706,-0.0379,-0.021
0.6924,-0.0415,-0.0154
0.6809,-0.0474,-0.0112
0.6728,-0.0569,-0.0081
0.6689,-0.0699,-0.0049
0.6687,-0.0853,-0.0027
0.6716,-0.1007,-0.002
0.677,-0.1151,-0.0024
0.6841,-0.1278,-0.0032
0.6924,-0.139,-0.0046
0.7016,-0.1493,-0.0071
0.7117,-0.1581,-0.01
0.7229,-0.1661,-0.0122
0.7349,-0.1722,-0.0134
0.7476,-0.1766,-0.0147
0.76,-0.1788,-0.0156
0.7725,-0.1805,-0.0149
0.7854,-0.1823,-0.0127
0.7984,-0.1823,-0.0095
0.8116,-0.1805,-0.0049
0.824,-0.1781,0.0002
0.837,-0.1744,0.0066
0.8504,-0.1693,0.0144
0.8622,-0.163,0.023
0.8732,-0.1556,0.0308
0.8834,-0.1473,0.0374
0.8934,-0.1378,0.0447
0.9034,-0.1285,0.0515
0.9135,-0.1195,0.0572
0.9237,-0.1094,0.0621
0.9352,-0.1002,0.0669
0.9472,-0.0909,0.0711
0.9584,-0.0799,0.0743
0.9697,-0.0704,0.0765
0.9811,-0.0616,0.0762
0.9926,-0.0535,0.0752
1.0051,-0.0454,0.0728
1.0173,-0.0384,0.0701
1.0288,-0.0322,0.0674
1.0393,-0.0259,0.0643
1.0486,-0.021,0.0613
1.0574,-0.0173,0.0601
1.0649,-0.0147,0.0579
1.071,-0.0125,0.0552
1.0745,-0.0117,0.052
1.0764,-0.0117,0.0481
1.0762,-0.0125,0.0447
1.073,-0.0144,0.0415
1.0674,-0.0169,0.0376
1.0591,-0.0198,0.0332
1.0495,-0.0237,0.0291
1.0383,-0.0286,0.0269
1.0263,-0.0342,0.0239
1.0148,-0.0398,0.02
1.0043,-0.0454,0.0178
0.9943,-0.0513,0.0154
0.9848,-0.0569,0.0139
0.9755,-0.0625,0.0122
0.9677,-0.0694,0.0098
0.9611,-0.0774,0.0073
0.9545,-0.0848,0.0051
0.9489,-0.0911,0.002
0.9435,-0.0972,-0.0017
0.9374,-0.1029,-0.0059
0.9301,-0.1082,-0.0105
0.9235,-0.1136,-0.0132
0.9171,-0.119,-0.0154
0.911,-0.1234,-0.0178
0.9052,-0.127,-0.02
0.8993,-0.1295,-0.0215
0.8934,-0.1312,-0.0217
0.8883,-0.1331,-0.0217
0.8824,-0.1339,-0.0225
0.8761,-0.1341,-0.0235
0.8697,-0.1331,-0.0247
0.8636,-0.1317,-0.0252
0.8573,-0.1309,-0.0257
0.8517,-0.1295,-0.0264
0.8475,-0.1266,-0.0274
0.8419,-0.1224,-0.0291
0.8346,-0.1175,-0.0293
0.826,-0.1116,-0.0298
0.8177,-0.1055,-0.0308
0.8101,-0.1004,-0.03
0.803,-0.0955,-0.0283
0.7964,-0.0906,-0.0269
0.7889,-0.0848,-0.0261
0.781,-0.0782,-0.0252
0.773,-0.0716,-0.0254
0.7647,-0.0655,-0.0254
0.7566,-0.0589,-0.0249
0.7488,-0.0513,-0.0239
0.741,-0.0445,-0.0247
0.7332,-0.0391,-0.0266
0.7251,-0.034,-0.0276
0.7168,-0.0281,-0.0261
0.7095,-0.0225,-0.0235
0.7019,-0.0166,-0.0215
0.6943,-0.0107,-0.0215
0.6867,-0.0049,-0.0222
0.6787,0.001,-0.023
0.6709,0.0066,-0.0237
0.6638,0.0122,-0.0257
0.6579,0.0181,-0.0283
0.6518,0.0237,-0.03
0.6452,0.0281,-0.0305
0.6411,0.0305,-0.03
0.6369,0.0335,-0.0283
0.6328,0.0352,-0.0274
0.6279,0.0376,-0.0269
0.6242,0.0393,-0.0257
0.6222,0.0398,-0.0249
0.6254,0.0403,-0.0239
0.632,0.0418,-0.022
0.6301,0.0398,-0.0183
0.6225,0.0344,-0.0139
0.6166,0.0283,-0.0093
0.6161,0.0232,-0.0068
0.6242,0.021,-0.0049
0.6303,0.0193,-0.0032
0.6286,0.0129,-0.0005
0.6262,0.0049,0.0037
0.6281,0.0,0.0078
0.6369,-0.0015,0.0115
0.642,-0.0068,0.0144
0.6418,-0.0195,0.0191
0.6474,-0.022,0.0222
0.6535,-0.0259,0.0237
0.6547,-0.0342,0.0244
0.6604,-0.0386,0.0276
0.6655,-0.042,0.0303
0.6692,-0.0469,0.0318
0.6736,-0.0511,0.0337
0.6777,-0.0564,0.0354
0.6833,-0.0625,0.0388
0.6889,-0.0699,0.0415
0.6948,-0.077,0.0437
0.7021,-0.0826,0.0474
0.7112,-0.0884,0.0523
0.719,-0.0953,0.055
0.7273,-0.1002,0.0581
0.7376,-0.1026,0.0623
0.7495,-0.1041,0.0665
0.761,-0.1048,0.0694
0.7727,-0.1033,0.0718
0.7862,-0.1009,0.0745
0.8011,-0.0965,0.0762
0.8162,-0.0919,0.0787
0.8306,-0.087,0.0804
0.8448,-0.0816,0.0816
0.859,-0.0757,0.0828
0.8729,-0.0699,0.0848
0.8868,-0.064,0.0872
0.9003,-0.0581,0.0892
0.9137,-0.0528,0.0921
0.9269,-0.0486,0.096
0.9406,-0.0445,0.0985
0.9538,-0.0406,0.0994
0.967,-0.0386,0.0999
0.9797,-0.0369,0.0994
0.9914,-0.0362,0.0977
1.0019,-0.0354,0.096
1.0105,-0.0354,0.0936
1.018,-0.0347,0.0911
1.0258,-0.0342,0.0894
1.0337,-0.0337,0.0882
1.0405,-0.0327,0.0867
1.0456,-0.0313,0.0858
1.0483,-0.03,0.0848
1.05,-0.0288,0.0838
1.0498,-0.0276,0.0836
1.051,-0.0266,0.0833
1.052,-0.0257,0.0836
1.052,-0.0242,0.085
1.0525,-0.0239,0.0884
1.052,-0.0252,0.0933
1.051,-0.0266,0.0982
1.0512,-0.0279,0.1031
1.053,-0.03,0.1102
1.0547,-0.032,0.118
1.0566,-0.0352,0.1256
1.0586,-0.0393,0.1334
1.0613,-0.043,0.1405
1.0652,-0.0472,0.1466
1.0696,-0.0518,0.1532
1.0749,-0.0559,0.1598
1.0818,-0.0589,0.1642
1.0899,-0.0579,0.1691
1.0999,-0.0594,0.1717
1.1094,-0.0645,0.171
1.1189,-0.0708,0.1698
1.1285,-0.0755,0.1691
1.138,-0.0772,0.1698
1.1463,-0.0789,0.1703
1.1546,-0.0831,0.1683
1.1624,-0.0877,0.1652
1.1702,-0.0936,0.1593
1.1783,-0.0977,0.1527
1.1866,-0.1016,0.1461
1.1939,-0.1077,0.139
1.2015,-0.1119,0.1324
1.2098,-0.1146,0.1261
1.2196,-0.1151,0.1234
1.2303,-0.1124,0.1234
1.2401,-0.109,0.1234
1.2484,-0.1048,0.1234
1.2555,-0.0992,0.1212
1.2606,-0.0923,0.1192
1.2631,-0.0848,0.1165
1.2638,-0.0762,0.1146
1.2638,-0.0674,0.116
1.2618,-0.0577,0.1207
1.2577,-0.0501,0.1261
1.2521,-0.0447,0.1307
1.2462,-0.0391,0.1319
1.2389,-0.0347,0.1297
1.2306,-0.031,0.1253
1.2235,-0.0286,0.1212
1.2176,-0.0269,0.1195
1.2108,-0.0254,0.1187
1.2044,-0.0225,0.119
1.1993,-0.02,0.1204
1.1959,-0.0178,0.1222
1.1917,-0.0156,0.1229
1.1881,-0.0122,0.1217
1.1856,-0.0073,0.119
1.1842,-0.0022,0.1131
1.1827,0.0024,0.1038
1.1829,0.0064,0.0919
1.1854,0.01,0.0799
1.1895,0.0125,0.0694
1.1954,0.0132,0.0599
1.2042,0.01,0.0506
1.2147,0.0054,0.042
1.2259,-0.0022,0.0344
1.2403,-0.0115,0.0264
1.2562,-0.021,0.0169
1.2736,-0.031,0.009
1.2938,-0.042,0.0059
1.3171,-0.0533,0.0034
1.3432,-0.066,0.0002
1.3696,-0.075,-0.0029
1.3928,-0.0728,-0.0034
1.4177,-0.0748,-0.0049
1.4446,-0.0858,-0.0125
1.4729,-0.0992,-0.0235
1.5008,-0.1126,-0.0342
1.5269,-0.1234,-0.0457
1.5504,-0.1307,-0.0564
1.5716,-0.1371,-0.0687
1.5907,-0.1429,-0.0845
1.607,-0.1454,-0.1038
1.6215,-0.1459,-0.1268
1.6354,-0.1463,-0.1517
1.6476,-0.1463,-0.1808
1.6569,-0.1449,-0.2123
1.6635,-0.1417,-0.2448
1.6657,-0.1366,-0.277
1.6674,-0.1309,-0.3056
1.6701,-0.1273,-0.3303
1.6728,-0.1241,-0.354
1.6715,-0.1173,-0.3767
1.6664,-0.1073,-0.3965
1.6569,-0.095,-0.4117
1.6378,-0.0818,-0.4236
1.6122,-0.0677,-0.4317
1.5812,-0.054,-0.4371
1.5457,-0.0423,-0.4383
1.5071,-0.0327,-0.4339
1.4649,-0.0244,-0.4246
1.4221,-0.0169,-0.4121
1.3794,-0.0103,-0.3985
1.3359,-0.0046,-0.3836
1.2926,-0.0012,-0.3682
1.2499,0.0012,-0.352
1.2091,0.0029,-0.3359
1.1702,0.0032,-0.3205
1.1333,0.0024,-0.3042
1.0984,0.0,-0.2897
1.0649,-0.0042,-0.277
1.0339,-0.0093,-0.2631
1.0039,-0.0144,-0.2482
0.9767,-0.0203,-0.2338
0.9545,-0.0264,-0.2213
0.9362,-0.034,-0.2101
0.9174,-0.0432,-0.1994
0.8968,-0.0523,-0.1906
0.878,-0.0616,-0.1842
0.8607,-0.0716,-0.1798
0.8451,-0.0826,-0.1764
0.8324,-0.0941,-0.1737
0.8214,-0.1058,-0.172
0.8089,-0.1175,-0.172
0.7967,-0.1285,-0.1715
0.7857,-0.138,-0.1725
0.7754,-0.1478,-0.1747
0.7676,-0.1578,-0.1769
0.7603,-0.1666,-0.1793
0.751,-0.1791,-0.1825
0.7473,-0.1888,-0.1849
0.7444,-0.1984,-0.1876
0.7429,-0.2079,-0.1893
0.7437,-0.2174,-0.1908
0.7466,-0.2257,-0.192
0.751,-0.2326,-0.192
0.7578,-0.2399,-0.1913
0.7671,-0.2465,-0.1881
0.7803,-0.2514,-0.1837
0.7969,-0.2551,-0.1798
0.8153,-0.2565,-0.1757
0.835,-0.257,-0.17
0.8529,-0.257,-0.1637
0.868,-0.2563,-0.1573
0.8822,-0.2546,-0.1512
0.8949,-0.2524,-0.1459
0.9061,-0.2494,-0.1402
0.9149,-0.2458,-0.1329
0.9223,-0.2419,-0.1263
0.9281,-0.2372,-0.1202
0.933,-0.2326,-0.1126
0.9381,-0.2287,-0.1031
0.9433,-0.225,-0.0926
0.9484,-0.2206,-0.0818
0.9535,-0.215,-0.0699
0.9584,-0.2091,-0.0564
0.9638,-0.2045,-0.0428
0.9697,-0.1998,-0.0296
0.9738,-0.1932,-0.0169
0.9789,-0.1869,-0.0046
0.9836,-0.1805,0.0076
0.9872,-0.1744,0.0193
0.9897,-0.1688,0.0303
0.9912,-0.1627,0.0396
0.9921,-0.1561,0.0474
0.9926,-0.15,0.0542
0.9914,-0.1449,0.0601
0.9897,-0.1393,0.0635
0.987,-0.1329,0.0652
0.9828,-0.1278,0.066
0.978,-0.1231,0.0665
0.9719,-0.119,0.0672
0.965,-0.1151,0.0669
0.9584,-0.1116,0.065
0.9523,-0.1085,0.0628
0.9474,-0.1043,0.0601
0.9411,-0.0994,0.0557
0.9342,-0.0945,0.0511
0.9257,-0.0904,0.0481
0.9161,-0.0865,0.0442
0.9074,-0.0831,0.0401
0.8995,-0.0792,0.0359
0.8907,-0.074,0.0318
0.8829,-0.0694,0.0276
0.8753,-0.0655,0.0215
0.8668,-0.0628,0.0151
0.8575,-0.0601,0.0081
0.8485,-0.0569,0.0022
0.8389,-0.0528,-0.0039
0.8287,-0.0486,-0.0095
0.8179,-0.045,-0.0151
0.8074,-0.042,-0.0205
0.7962,-0.0388,-0.0257
0.7832,-0.0354,-0.0303
0.7713,-0.0327,-0.0347
0.7588,-0.03,-0.0384
0.7461,-0.0269,-0.0423
0.7337,-0.0235,-0.0464
0.7217,-0.0227,-0.0506
0.709,-0.023,-0.0562
0.6946,-0.0198,-0.0611
0.6806,-0.0149,-0.0618
0.6696,-0.0115,-0.0596
0.6604,-0.009,-0.0569
0.6501,-0.0098,-0.0557
0.6386,-0.0125,-0.0569
0.6271,-0.0125,-0.0579
0.6154,-0.0105,-0.0581
0.6037,-0.0078,-0.0572
0.5917,-0.0046,-0.0557
0.581,-0.0027,-0.053
0.5714,-0.0017,-0.0508
0.5646,-0.001,-0.0489
0.5578,-0.0002,-0.0467
0.5502,0.0012,-0.0462
0.5436,0.0039,-0.0452
0.5394,0.0056,-0.0435
0.5358,0.0073,-0.0415
0.5326,0.0093,-0.0408
0.5301,0.0107,-0.0413
0.5292,0.0115,-0.041
0.5299,0.0122,-0.0398
0.5328,0.0122,-0.0371
0.537,0.0103,-0.0342
0.5416,0.0088,-0.0325
0.5482,0.0081,-0.0313
0.5553,0.0068,-0.032
0.5619,0.0056,-0.0332
0.5685,0.0027,-0.034
0.5771,-0.0022,-0.0347
0.5898,-0.0115,-0.0371
0.6044,-0.0254,-0.0408
0.6186,-0.0413,-0.0445
0.6318,-0.0572,-0.0476
0.6437,-0.0713,-0.0508
0.6557,-0.0848,-0.0535
0.667,-0.0977,-0.0559
0.6772,-0.1092,-0.0579
0.687,-0.1197,-0.0599
0.6963,-0.13,-0.0611
0.7056,-0.14,-0.0611
0.7148,-0.1478,-0.0596
0.7244,-0.1549,-0.0572
0.7327,-0.1615,-0.0542
0.7405,-0.1676,-0.0513
0.7486,-0.1722,-0.0481
0.7561,-0.1764,-0.0442
0.7639,-0.1791,-0.0403
0.7713,-0.1808,-0.0374
0.7786,-0.1818,-0.0335
0.7862,-0.1823,-0.0303
0.7928,-0.1825,-0.0269
0.7972,-0.1827,-0.0237
0.8018,-0.1818,-0.0205
0.8072,-0.1803,-0.0176
0.8131,-0.1793,-0.0149
0.8184,-0.1774,-0.0115
0.8243,-0.1749,-0.0076
0.8292,-0.1713,-0.0034
0.8331,-0.1669,-0.0015
0.8367,-0.1622,0.001
0.8394,-0.1578,0.0034
0.8426,-0.1529,0.0039
0.8453,-0.1478,0.0034
0.8468,-0.1427,0.0032
0.848,-0.1375,0.0015
0.849,-0.1319,-0.0005
0.8495,-0.1278,-0.0024
0.8492,-0.1246,-0.0039
0.8497,-0.119,-0.0068
0.8502,-0.1131,-0.0093
0.8477,-0.1099,-0.0112
0.8448,-0.1053,-0.0129
0.8433,-0.0977,-0.0137
0.8441,-0.0894,-0.0149
0.8451,-0.0828,-0.0161
0.8441,-0.076,-0.0183
0.8433,-0.0682,-0.02
0.8426,-0.0625,-0.0203
0.8411,-0.0577,-0.0215
0.8409,-0.053,-0.0232
0.8416,-0.0491,-0.0254
0.8433,-0.0467,-0.0283
0.8465,-0.0454,-0.0303
0.8512,-0.0479,-0.032
0.856,-0.0506,-0.0327
0.8607,-0.0503,-0.0318
0.8641,-0.0496,-0.0288
0.8656,-0.0542,-0.0269
0.8656,-0.0625,-0.0257
0.8688,-0.0672,-0.021
0.8761,-0.0672,-0.0127
0.8841,-0.0689,-0.0046
0.8917,-0.0735,0.002
0.8998,-0.0799,0.0081
0.9096,-0.0882,0.0149
0.9203,-0.0987,0.0195
0.9313,-0.1104,0.0235
0.9452,-0.1217,0.0286
0.9616,-0.1317,0.0332
0.9789,-0.141,0.0374
0.997,-0.152,0.0413
1.0163,-0.1634,0.0467
1.0378,-0.1742,0.0525
1.06,-0.1849,0.0584
1.082,-0.1967,0.0652
1.104,-0.2086,0.0711
1.1265,-0.2167,0.077
1.1524,-0.2226,0.0853
1.1783,-0.2282,0.0936
1.1993,-0.2338,0.0987
1.2159,-0.2421,0.1029
1.2377,-0.2494,0.1075
1.2628,-0.2548,0.1116
1.2892,-0.2599,0.1158
1.3273,-0.2682,0.1224
1.353,-0.2748,0.1266
1.3779,-0.2829,0.1307
1.4004,-0.291,0.1341
1.4221,-0.2983,0.1366
1.4424,-0.3059,0.138
1.459,-0.3142,0.1383
1.4729,-0.3205,0.1375
1.4849,-0.3259,0.1361
1.4925,-0.3313,0.1322
1.4947,-0.3369,0.1263
1.4927,-0.3418,0.119
1.4876,-0.3454,0.1099
1.481,-0.3472,0.1016
1.4722,-0.3479,0.0955
1.4602,-0.3467,0.0921
1.4448,-0.3433,0.0909
1.428,-0.3386,0.0904
1.4099,-0.3332,0.0892
1.3921,-0.3252,0.0882
1.3767,-0.3178,0.0875
1.361,-0.3108,0.0875
1.3456,-0.3034,0.0872
1.3312,-0.2956,0.0872
1.3173,-0.2868,0.0884
1.3026,-0.2766,0.0906
1.2899,-0.2656,0.0931
1.2777,-0.2536,0.0938
1.266,-0.2411,0.0938
1.257,-0.2309,0.0919
1.2504,-0.2235,0.0875
1.2462,-0.2194,0.0801
1.2433,-0.2155,0.0711
1.2399,-0.2118,0.0613
1.2364,-0.2086,0.0489
1.2293,-0.2052,0.0342
1.2188,-0.2016,0.0188
1.2066,-0.1964,0.0034
1.1932,-0.1913,-0.0103
1.179,-0.1864,-0.0232
1.1663,-0.183,-0.0362
1.1551,-0.1827,-0.0511
1.1453,-0.1845,-0.0677
1.1382,-0.1901,-0.0858
1.1328,-0.1994,-0.1046
1.1297,-0.2108,-0.1231
1.1297,-0.2226,-0.1415
1.1321,-0.2328,-0.161
1.1363,-0.2409,-0.1808
1.1426,-0.2475,-0.1996
1.1512,-0.2519,-0.2162
1.1622,-0.2551,-0.2301
1.1778,-0.2573,-0.2433
1.1976,-0.2595,-0.2536
1.2176,-0.2631,-0.2597
1.2413,-0.2682,-0.2624
1.2697,-0.2753,-0.2641
1.2985,-0.2829,-0.2651
1.3197,-0.2924,-0.2651
1.342,-0.3003,-0.2609
1.3708,-0.3044,-0.2521
1.4023,-0.3059,-0.2411
1.4324,-0.3061,-0.2306
1.4558,-0.3054,-0.2223
1.4744,-0.3034,-0.2167
1.4912,-0.3005,-0.2113
1.5059,-0.2963,-0.2077
1.5193,-0.2915,-0.2062
1.5291,-0.2834,-0.2069
1.5355,-0.2739,-0.2108
1.5404,-0.2639,-0.2155
1.5423,-0.2514,-0.2187
1.5401,-0.2362,-0.2243
1.5355,-0.2201,-0.2296
1.5262,-0.2047,-0.2338
1.5103,-0.1896,-0.2384
1.4881,-0.1727,-0.2448
1.459,-0.1564,-0.2526
1.4236,-0.1417,-0.2612
1.3889,-0.1239,-0.2682
1.3566,-0.1051,-0.2751
1.3234,-0.0894,-0.2802
1.2858,-0.0762,-0.2846
1.2484,-0.0616,-0.2878
1.2135,-0.0486,-0.2912
1.1805,-0.0386,-0.2939
1.1475,-0.0279,-0.2963
1.114,-0.0147,-0.2981
1.0813,-0.001,-0.2976
1.0503,0.011,-0.2976
1.0207,0.0217,-0.2978
0.9926,0.0318,-0.2973
0.9655,0.042,-0.2956
0.9389,0.0525,-0.2941
0.9144,0.0596,-0.2939
0.8917,0.066,-0.2924
0.8707,0.0726,-0.29
0.8519,0.0787,-0.2885
0.8341,0.084,-0.2866
0.8165,0.0909,-0.2827
0.7999,0.0982,-0.2778
0.7842,0.1033,-0.2724
0.7703,0.1065,-0.2665
0.7581,0.108,-0.2587
0.7468,0.1099,-0.2497
0.7359,0.1092,-0.2411
0.7275,0.1036,-0.2328
0.7231,0.0941,-0.2238
0.7229,0.0821,-0.2133
0.7239,0.0696,-0.2016
0.7251,0.0586,-0.1891
0.7283,0.0479,-0.1747
0.7329,0.0366,-0.16
0.7385,0.0257,-0.1449
0.7446,0.0149,-0.1307
0.75,0.0049,-0.1173
0.7561,-0.0049,-0.1036
0.7644,-0.0144,-0.0904
0.7723,-0.0247,-0.0779
0.7798,-0.0354,-0.066
0.7881,-0.0462,-0.0535
0.7967,-0.0564,-0.041
0.8069,-0.0662,-0.0291
0.8182,-0.0757,-0.0171
0.8306,-0.0848,-0.0037
0.8441,-0.095,0.0112
0.8575,-0.1048,0.0249
0.87,-0.1141,0.0374
0.8829,-0.1234,0.0498
0.8961,-0.1322,0.0606
0.9078,-0.1395,0.0696
0.9188,-0.1471,0.0779
0.9296,-0.1544,0.0855
0.9398,-0.161,0.0916
0.9479,-0.1676,0.0963
0.955,-0.1737,0.0987
0.9613,-0.1791,0.0997
0.966,-0.183,0.0992
0.9697,-0.1869,0.0972
0.9728,-0.192,0.0933
0.977,-0.1976,0.0865
0.9806,-0.2025,0.0792
0.9841,-0.2072,0.0701
0.9858,-0.2121,0.0621
0.988,-0.2172,0.053
0.988,-0.2228,0.044
0.9863,-0.2289,0.0349
0.9843,-0.2345,0.0239
0.9804,-0.2387,0.0137
0.9745,-0.2424,0.0044
0.9675,-0.2463,-0.0046
0.9596,-0.2497,-0.0125
0.9504,-0.2519,-0.0186
0.9401,-0.2536,-0.0235
0.9315,-0.2521,-0.0283
0.9269,-0.2492,-0.032
0.9205,-0.248,-0.0371
0.9093,-0.2482,-0.0452
0.8959,-0.2465,-0.053
0.8832,-0.2421,-0.0579
0.8727,-0.2372,-0.0606
0.8648,-0.2314,-0.0618
0.857,-0.2248,-0.063
0.8495,-0.2169,-0.064
0.8431,-0.2077,-0.063
0.8382,-0.1979,-0.0613
0.8341,-0.1884,-0.0599
0.8309,-0.1781,-0.0584
0.827,-0.1673,-0.0564
0.8228,-0.1573,-0.055
0.8199,-0.1468,-0.0545
0.8162,-0.1368,-0.055
0.8111,-0.1266,-0.0552
0.8065,-0.116,-0.0555
0.8021,-0.1058,-0.0574
0.7972,-0.0945,-0.0601
0.7916,-0.0828,-0.064
0.783,-0.0647,-0.0728
0.7786,-0.0535,-0.0789
0.773,-0.0423,-0.0845
0.7659,-0.0298,-0.0889
0.7583,-0.0181,-0.0906
0.7505,-0.0059,-0.0921
0.7407,0.0064,-0.0936
0.7307,0.0183,-0.0945
0.7214,0.0288,-0.0945
0.7122,0.0384,-0.0948
0.7026,0.0476,-0.0941
0.6933,0.055,-0.0926
0.6831,0.0621,-0.0926
0.6726,0.0696,-0.0928
0.6626,0.076,-0.0936
0.653,0.0809,-0.0928
0.644,0.084,-0.0916
0.6357,0.087,-0.0899
0.6279,0.0901,-0.0877
0.6203,0.0919,-0.0862
0.6137,0.0911,-0.0831
0.6137,0.0906,-0.0792
0.6154,0.0909,-0.077
0.6088,0.0872,-0.075
0.6032,0.0818,-0.0726
0.5966,0.076,-0.0708
0.59,0.0682,-0.0682
0.5856,0.0586,-0.065
0.5817,0.0493,-0.0616
0.5783,0.0393,-0.0577
0.5749,0.0279,-0.053
0.5727,0.0166,-0.0489
0.5722,0.0039,-0.0445
0.5744,-0.0095,-0.0388
0.5761,-0.0232,-0.0322
0.5768,-0.0371,-0.0254
0.579,-0.0513,-0.0188
0.5814,-0.0647,-0.0137
0.5839,-0.0779,-0.0098
0.5873,-0.0921,-0.0054
0.591,-0.1051,0.0002
0.5949,-0.1168,0.0054
0.5995,-0.1283,0.0095
0.6049,-0.1417,0.0137
0.6088,-0.1549,0.0159
0.613,-0.1649,0.0154
0.6174,-0.1744,0.0156
0.623,-0.184,0.0176
0.6293,-0.1937,0.0195
0.6354,-0.2025,0.0205
0.6428,-0.2099,0.0222
0.6506,-0.2155,0.0217
0.6594,-0.2191,0.0203
0.6694,-0.2218,0.0186
0.6809,-0.2221,0.0173
0.6943,-0.2199,0.0181
0.7075,-0.2169,0.0183
0.7205,-0.2113,0.0171
0.7351,-0.2001,0.0156
0.751,-0.1852,0.0144
0.7664,-0.1686,0.0127
0.781,-0.1517,0.0115
0.7935,-0.1361,0.0093
0.8047,-0.1207,0.0054
0.815,-0.1058,0.0005
0.8245,-0.0923,-0.0056
0.8346,-0.0806,-0.0098
0.8446,-0.0689,-0.0129
0.8539,-0.0572,-0.0156
0.8629,-0.0459,-0.0181
0.8736,-0.0352,-0.0195
0.8859,-0.0247,-0.0193
0.8971,-0.0166,-0.0188
0.9074,-0.0098,-0.0173
0.9181,-0.0029,-0.0142
0.9293,0.0044,-0.0098
0.9408,0.0107,-0.0042
0.953,0.0161,0.0017
0.966,0.021,0.0081
0.9777,0.0249,0.0151
0.988,0.0296,0.0225
0.9995,0.032,0.031
1.0114,0.0332,0.0396
1.0217,0.0344,0.0474
1.0315,0.0352,0.0547
1.0405,0.0342,0.063
1.0483,0.032,0.0706
1.0561,0.0288,0.0777
1.0613,0.0274,0.0853
1.0632,0.0252,0.0909
1.0654,0.0195,0.0941
1.0671,0.0125,0.0945
1.0688,0.0049,0.0919
1.0693,-0.0032,0.0867
1.0686,-0.0117,0.0821
1.0659,-0.0217,0.0782
1.0608,-0.0315,0.074
1.0549,-0.0413,0.0699
1.0505,-0.0508,0.0657
1.0444,-0.0618,0.0628
1.0378,-0.0735,0.0611
1.0315,-0.084,0.0591
1.0239,-0.0948,0.0572
1.0156,-0.1055,0.054
1.0083,-0.1163,0.0491
1.0019,-0.1273,0.043
0.9965,-0.1368,0.0369
0.9931,-0.1439,0.0332
0.9909,-0.1498,0.0322
0.9919,-0.1532,0.0354
0.9948,-0.1546,0.0418
1.0004,-0.1559,0.0523
1.0061,-0.1559,0.0643
1.0114,-0.1551,0.0762
1.0166,-0.1554,0.0884
1.0207,-0.1559,0.1002
1.0234,-0.1561,0.1119
1.0249,-0.1551,0.1224
1.0266,-0.1542,0.1324
1.0271,-0.1539,0.1429
1.0271,-0.1524,0.1539
1.0276,-0.1502,0.1656
1.028,-0.148,0.1774
1.0285,-0.1459,0.1871
1.0288,-0.1437,0.194
1.0276,-0.1405,0.1991
1.0268,-0.1375,0.2035
1.0258,-0.1351,0.2067
1.0266,-0.1327,0.2081
1.0283,-0.13,0.2077
1.031,-0.1283,0.2062
1.0349,-0.1266,0.205
1.0405,-0.1263,0.2038
1.0469,-0.1256,0.2016
1.0544,-0.1246,0.1981
1.0649,-0.1244,0.1945
1.0762,-0.1248,0.1913
1.0877,-0.127,0.1869
1.0999,-0.13,0.1813
1.1118,-0.1336,0.1727
1.1226,-0.1373,0.1603
1.1324,-0.1407,0.1432
1.1404,-0.1429,0.1212
1.1465,-0.1432,0.0955
1.1521,-0.1427,0.0687
1.158,-0.1415,0.042
1.1653,-0.1388,0.0176
1.1732,-0.1353,-0.0037
1.1837,-0.1331,-0.0232
1.1976,-0.13,-0.0388
1.2147,-0.1263,-0.0501
1.2374,-0.1234,-0.0552
1.2655,-0.1219,-0.0533
1.296,-0.1197,-0.0462
1.3278,-0.116,-0.0366
1.3593,-0.1129,-0.0266
1.3899,-0.1082,-0.0178
1.4197,-0.1036,-0.0105
1.4492,-0.0992,-0.0042
1.4793,-0.0953,0.0017
1.5079,-0.0933,0.0054
1.5338,-0.0928,0.0061
1.5567,-0.0909,0.0071
1.5699,-0.0872,0.0054
1.5838,-0.0887,0.0024
1.6036,-0.0938,-0.002
1.6266,-0.0992,-0.0144
1.672,-0.1058,-0.0366
1.7084,-0.1112,-0.0423
1.7495,-0.1185,-0.0381
1.7917,-0.128,-0.032
1.8311,-0.1368,-0.0291
1.8677,-0.1439,-0.0325
1.9012,-0.1485,-0.0403
1.93,-0.1507,-0.0493
1.9562,-0.1522,-0.0603
1.983,-0.1564,-0.0694
2.0067,-0.1588,-0.0774
2.0231,-0.1578,-0.088
2.0312,-0.1534,-0.1031
2.0329,-0.1468,-0.1224
2.027,-0.1383,-0.1471
2.0133,-0.1319,-0.1759
1.9901,-0.127,-0.2067
1.9547,-0.1226,-0.238
1.9073,-0.118,-0.2695
1.8487,-0.1114,-0.3005
1.7778,-0.0994,-0.3291
1.7011,-0.0806,-0.3513
1.6244,-0.0591,-0.3635
1.5516,-0.0379,-0.3645
1.4834,-0.0181,-0.3582
1.4184,-0.0015,-0.3491
1.3557,0.0156,-0.3391
1.2958,0.0325,-0.3288
1.2418,0.0484,-0.3164
1.1922,0.064,-0.3034
1.1475,0.0774,-0.2897
1.1079,0.0892,-0.2773
1.0723,0.0997,-0.2663
1.0403,0.1112,-0.256
1.0119,0.1229,-0.247
0.988,0.1324,-0.2397
0.9679,0.1393,-0.2316
0.9496,0.1451,-0.2238
0.9318,0.1498,-0.2169
0.9147,0.1529,-0.2123
0.8995,0.1544,-0.2099
0.8846,0.1556,-0.2106
0.8705,0.1566,-0.2135
0.8568,0.1583,-0.2187
0.8438,0.16,-0.2255
0.8319,0.16,-0.2326
0.8211,0.1593,-0.2399
0.8131,0.1578,-0.2472
0.8065,0.1571,-0.2548
0.7989,0.1581,-0.2614
0.792,0.1586,-0.2663
0.7869,0.1578,-0.2704
0.7845,0.1554,-0.2746
0.7845,0.1532,-0.2768
0.7845,0.1512,-0.2792
0.7854,0.149,-0.2802
0.7872,0.1463,-0.2788
0.7906,0.1427,-0.2758
0.7957,0.139,-0.2714
0.8025,0.1339,-0.2678
0.8118,0.1283,-0.2631
0.8226,0.1219,-0.2568
0.8346,0.1129,-0.2485
0.8485,0.1033,-0.2392
0.8644,0.0945,-0.2284
0.8832,0.0845,-0.2162
0.9042,0.0713,-0.2028
0.9257,0.0545,-0.1898
0.946,0.0344,-0.1781
0.9633,0.0117,-0.1681
0.9755,-0.0132,-0.1598
0.9811,-0.0398,-0.1529
0.9811,-0.0667,-0.1454
0.977,-0.0926,-0.1356
0.9709,-0.1165,-0.1226
0.9643,-0.1393,-0.108
0.9582,-0.1586,-0.0919
0.9528,-0.1749,-0.0743
0.9479,-0.1896,-0.0555
0.9435,-0.2028,-0.0357
0.9396,-0.215,-0.0147
0.9367,-0.2253,0.0059
0.9335,-0.2333,0.0257
0.9298,-0.2394,0.045
0.9271,-0.2448,0.0645
0.9249,-0.2504,0.0816
0.9225,-0.2543,0.0972
0.9203,-0.257,0.1107
0.9174,-0.2592,0.1219
0.9144,-0.2617,0.1302
0.911,-0.2634,0.1363
0.9071,-0.2639,0.1415
0.9044,-0.2629,0.1451
0.902,-0.2626,0.148
0.8995,-0.2634,0.1495
0.8966,-0.2641,0.1498
0.8946,-0.2636,0.149
0.8946,-0.2609,0.1473
0.8964,-0.2585,0.1449
0.8966,-0.2587,0.1412
0.8934,-0.259,0.1366
0.8907,-0.2553,0.1319
0.8915,-0.2475,0.1268
0.8895,-0.2448,0.1224
0.8832,-0.2455,0.1165
0.8741,-0.2428,0.1094
0.8663,-0.2336,0.1029
0.8639,-0.2213,0.0972
0.8612,-0.2128,0.0921
0.8548,-0.205,0.087
0.8465,-0.1952,0.0814
0.8387,-0.1827,0.0748
0.8324,-0.1688,0.0677
0.8277,-0.1556,0.0613
0.825,-0.1432,0.0559
0.8236,-0.13,0.0508
0.824,-0.1178,0.0459
0.8236,-0.1063,0.0408
0.8226,-0.0955,0.0352
0.8211,-0.0855,0.0296
0.8184,-0.0748,0.0244
0.8148,-0.0635,0.0181
0.8101,-0.0537,0.0117
0.8045,-0.0445,0.0049
0.7986,-0.0359,-0.0017
0.7933,-0.0279,-0.0078
0.7876,-0.0208,-0.0149
0.7813,-0.0144,-0.0222
0.7757,-0.0073,-0.0293
0.7715,-0.001,-0.0369
0.7681,0.0046,-0.0457
0.7659,0.0081,-0.0537
0.7632,0.0115,-0.0608
0.76,0.0139,-0.0699
0.7578,0.0147,-0.0809
0.7561,0.0142,-0.0919
0.7559,0.0132,-0.1041
0.7576,0.011,-0.117
0.7595,0.0093,-0.1292
0.7627,0.0068,-0.141
0.7657,0.0039,-0.152
0.7679,0.0002,-0.1644
0.7701,-0.0051,-0.1774
0.7745,-0.0137,-0.1906
0.7793,-0.0205,-0.2023
0.7828,-0.0261,-0.2123
0.7847,-0.0313,-0.2218
0.7859,-0.0344,-0.2304
0.7859,-0.0366,-0.2375
0.7862,-0.0381,-0.2426
0.7867,-0.0393,-0.2458
0.7879,-0.0408,-0.2485
0.7896,-0.0418,-0.2504
0.792,-0.042,-0.2516
0.7942,-0.0435,-0.2516
0.7972,-0.0462,-0.2511
0.8008,-0.0474,-0.2497
0.8047,-0.0484,-0.247
0.8082,-0.0498,-0.2441
0.8123,-0.052,-0.2411
0.8177,-0.0542,-0.2384
0.824,-0.0581,-0.2353
0.8316,-0.064,-0.2306
0.8411,-0.0726,-0.2262
0.8519,-0.0845,-0.2218
0.8619,-0.0985,-0.2172
0.8705,-0.1119,-0.213
0.8788,-0.1244,-0.2079
0.8854,-0.1346,-0.2006
0.8922,-0.1432,-0.1908
0.8981,-0.1502,-0.1796
0.9047,-0.1568,-0.1676
0.912,-0.163,-0.1554
0.9191,-0.1686,-0.1415
0.9262,-0.1732,-0.127
0.935,-0.1783,-0.1033
0.9401,-0.181,-0.087
0.9433,-0.1832,-0.0694
0.946,-0.1845,-0.0513
0.9482,-0.1864,-0.0332
0.9491,-0.1886,-0.0156
0.9489,-0.1896,0.001
0.9474,-0.1908,0.0171
0.9447,-0.1928,0.0322
0.9389,-0.1959,0.0464
0.9335,-0.1986,0.0594
0.9271,-0.2016,0.0706
0.9183,-0.2038,0.0811
0.9083,-0.2057,0.0894
0.8978,-0.2084,0.0965
0.8863,-0.2121,0.1021
0.8741,-0.2162,0.1065
0.8602,-0.2206,0.1107
0.846,-0.2238,0.1151
0.8304,-0.2257,0.1185
0.814,-0.2282,0.1217
0.7986,-0.2309,0.1236
0.7825,-0.2333,0.1273
0.7657,-0.2358,0.1329
0.7495,-0.2399,0.1388
0.7334,-0.2438,0.1446
0.7185,-0.2463,0.1522
0.7046,-0.2487,0.1608
0.6909,-0.2514,0.1695
0.6777,-0.2533,0.1783
0.6655,-0.256,0.1879
0.6567,-0.2599,0.1981
0.656,-0.2646,0.2062
0.6506,-0.269,0.2133
0.6376,-0.2714,0.2255
0.6271,-0.2734,0.2397
0.6208,-0.2753,0.2494
0.6196,-0.2785,0.2555
0.6252,-0.2817,0.2577
0.6298,-0.2841,0.2621
0.6323,-0.2846,0.2707
0.6352,-0.2861,0.2773
0.6396,-0.2885,0.277
0.6477,-0.2907,0.2695
0.6586,-0.2922,0.2602
0.6709,-0.2937,0.2526
0.6858,-0.2944,0.2453
0.7026,-0.2939,0.2377
0.7197,-0.2929,0.2311
0.738,-0.2915,0.2233
0.7583,-0.2897,0.2145
0.7786,-0.2875,0.2047
0.7969,-0.2853,0.193
0.814,-0.2829,0.181
0.8309,-0.2795,0.1691
0.848,-0.2751,0.1568
0.8629,-0.27,0.1451
0.8766,-0.2641,0.1344
0.8895,-0.2555,0.1251
0.9012,-0.245,0.117
0.9125,-0.2355,0.1087
0.922,-0.2265,0.1024
0.9303,-0.2167,0.0965
0.9384,-0.2067,0.0909
0.945,-0.1974,0.0858
0.9491,-0.1906,0.0809
0.9504,-0.1871,0.0772
0.9521,-0.1781,0.077
0.9547,-0.1659,0.0816
0.9574,-0.1532,0.0882
0.9601,-0.1444,0.0928
0.9628,-0.1336,0.0977
0.9623,-0.1226,0.1043
0.9606,-0.1116,0.1112
0.9599,-0.0997,0.1182
0.9574,-0.0894,0.1275
0.9543,-0.0823,0.1385
0.9521,-0.076,0.1485
0.9511,-0.0713,0.1586
0.9496,-0.0701,0.1681
0.9479,-0.0694,0.1771
0.9462,-0.0682,0.1869
0.9442,-0.0701,0.1967
0.9442,-0.0738,0.2064
0.945,-0.077,0.2143
0.9462,-0.0811,0.2209
0.9484,-0.0855,0.2287
0.9506,-0.0899,0.2372
0.9535,-0.0933,0.245
0.9562,-0.0967,0.2516
0.9574,-0.1007,0.2575
0.9579,-0.1046,0.2624
0.9569,-0.1082,0.2663
0.9538,-0.1126,0.268
0.9494,-0.1163,0.2685
0.9433,-0.1195,0.269
0.9359,-0.1222,0.2675
0.9271,-0.1244,0.2648
0.9164,-0.1258,0.2599
0.9056,-0.1283,0.2546
0.8946,-0.1317,0.2507
0.8827,-0.1336,0.2475
0.87,-0.1341,0.246
0.8563,-0.1353,0.246
0.8411,-0.1388,0.2472
0.827,-0.1444,0.2507
0.8138,-0.1498,0.2558
0.7994,-0.1544,0.2607
0.7842,-0.1603,0.2658
0.7674,-0.1681,0.2722
0.7527,-0.1779,0.2797
0.7407,-0.1881,0.2866
0.7293,-0.1984,0.2937
0.7185,-0.2106,0.3007
0.7107,-0.2243,0.3066
0.7053,-0.2382,0.3117
0.7014,-0.2516,0.3164
0.7002,-0.2656,0.3203
0.7012,-0.2797,0.3252
0.7031,-0.2927,0.3315
0.7073,-0.3042,0.3381
0.7153,-0.3144,0.3445
0.728,-0.3227,0.3501
0.7456,-0.3313,0.3564
0.7674,-0.3393,0.3608
0.7928,-0.3462,0.3645
0.8218,-0.3518,0.3682
0.8524,-0.3567,0.3694
0.8827,-0.3599,0.3709
0.9115,-0.3618,0.3723
0.9396,-0.3628,0.3743
0.9662,-0.364,0.3745
0.9919,-0.3628,0.3738
1.0158,-0.3594,0.3713
1.0393,-0.3545,0.3674
1.0615,-0.3479,0.3633
1.0835,-0.3423,0.3582
1.1065,-0.3352,0.3525
1.1282,-0.3274,0.3454
1.1482,-0.3183,0.3391
1.1663,-0.3078,0.3345
1.1834,-0.2961,0.3303
1.1995,-0.2851,0.3259
1.213,-0.2739,0.3227
1.223,-0.2629,0.3188
1.2293,-0.256,0.3132
1.2337,-0.2482,0.3068
1.2399,-0.2338,0.3046
1.245,-0.2191,0.3059
1.2484,-0.2084,0.3093
1.2494,-0.2013,0.3139
1.2484,-0.1979,0.3174
1.2435,-0.1991,0.3171
1.2352,-0.193,0.3208
1.2318,-0.182,0.3323
1.2289,-0.1747,0.3457
1.223,-0.1708,0.3574
1.2144,-0.1654,0.3679
1.2027,-0.1564,0.3782
1.1886,-0.149,0.3858
1.1741,-0.1493,0.3862
1.1585,-0.1598,0.3775
1.1451,-0.182,0.3621
1.1346,-0.2147,0.3462
1.1248,-0.2524,0.3347
1.1145,-0.2873,0.3308
1.1021,-0.3159,0.332
1.0862,-0.3384,0.333
1.0679,-0.3567,0.3305
1.0515,-0.3728,0.3218
1.0415,-0.3897,0.3051
1.042,-0.4202,0.2707
1.0522,-0.4415,0.2436
1.0686,-0.4617,0.2172
1.0884,-0.4813,0.1935
1.1096,-0.4969,0.1769
1.1319,-0.5089,0.1686
1.1561,-0.517,0.1691
1.1815,-0.5201,0.1771
1.2079,-0.5194,0.1918
1.2328,-0.5152,0.2118
1.2565,-0.5086,0.2338
1.2777,-0.4999,0.2555
1.2965,-0.4893,0.2763
1.3122,-0.4766,0.2959
1.3249,-0.4617,0.3132
1.3368,-0.4461,0.3288
1.3486,-0.4297,0.3433
1.361,-0.4146,0.3594
1.3742,-0.4002,0.376
1.3881,-0.386,0.3926
1.4023,-0.3728,0.4095
1.4158,-0.3604,0.4263
1.4285,-0.3472,0.4424
1.438,-0.332,0.4564
1.4424,-0.3161,0.4678
1.4431,-0.299,0.473
1.4395,-0.2812,0.4713
1.4326,-0.2653,0.4656
1.4224,-0.2507,0.4581
1.4084,-0.2358,0.4476
1.3908,-0.2218,0.4344
1.3713,-0.2108,0.4214
1.3505,-0.2025,0.4082
1.3283,-0.1959,0.3931
1.3036,-0.1898,0.3779
1.278,-0.1845,0.3633
1.2513,-0.1805,0.3476
1.2232,-0.1769,0.3318
1.1949,-0.1739,0.3144
1.1683,-0.1722,0.2968
1.1448,-0.172,0.278
1.1223,-0.1703,0.2597
1.1008,-0.1681,0.2426
1.0796,-0.1652,0.2245
1.0586,-0.1632,0.2062
1.0393,-0.1608,0.1898
1.0229,-0.1571,0.1747
1.0085,-0.1534,0.1603
0.9943,-0.1493,0.1476
0.9816,-0.1456,0.1339
0.9714,-0.1422,0.1204
0.9618,-0.1388,0.1073
0.9543,-0.1358,0.0958
0.9464,-0.1334,0.0843
0.9406,-0.1324,0.0726
0.9376,-0.1322,0.0616
0.9364,-0.1327,0.0513
0.9386,-0.1339,0.0401
0.9438,-0.1341,0.0283
0.9499,-0.1331,0.0156
0.9572,-0.1317,0.0022
0.965,-0.1305,-0.0105
0.9728,-0.1273,-0.023
0.9814,-0.1234,-0.0352
0.9907,-0.1197,-0.0462
0.998,-0.1143,-0.0567
1.0068,-0.1073,-0.0665
1.0163,-0.0999,-0.0752
1.0263,-0.0923,-0.0836
1.0349,-0.0843,-0.0916
1.0415,-0.0757,-0.0989
1.0481,-0.0667,-0.1048
1.0547,-0.0577,-0.1097
1.0596,-0.0474,-0.1141
1.0632,-0.0354,-0.12
1.0654,-0.0242,-0.127
1.0659,-0.0132,-0.1344
1.0664,-0.0015,-0.1412
1.0649,0.0107,-0.1468
1.0632,0.0232,-0.1534
1.061,0.0364,-0.1603
1.0591,0.0489,-0.1676
1.0561,0.0599,-0.1754
1.0532,0.0721,-0.1808
1.0495,0.0855,-0.1852
1.0454,0.0975,-0.1879
1.0412,0.1085,-0.1901
1.0366,0.1204,-0.1908
1.031,0.1322,-0.1901
1.0251,0.1441,-0.1876
1.0185,0.1549,-0.1847
1.0114,0.1652,-0.181
1.0039,0.1739,-0.1759
0.9955,0.181,-0.171
0.9865,0.1867,-0.1661
0.977,0.1913,-0.1605
0.967,0.194,-0.1554
0.9572,0.195,-0.152
0.9472,0.1954,-0.1473
0.9376,0.1947,-0.1405
0.9303,0.195,-0.1341
0.9237,0.1952,-0.128
0.9183,0.1959,-0.1207
0.9147,0.1964,-0.1126
0.9115,0.1957,-0.1041
0.91,0.194,-0.0955
0.9091,0.1918,-0.088
0.9091,0.1888,-0.0809
0.9074,0.1842,-0.0752
0.9032,0.1786,-0.0716
0.8986,0.1732,-0.0684
0.8946,0.1664,-0.0667
0.8905,0.1581,-0.0652
0.8863,0.1493,-0.0633
0.8819,0.14,-0.0611
0.8766,0.13,-0.0591
0.871,0.1185,-0.0567
0.8663,0.107,-0.0535
0.86,0.095,-0.0503
0.8541,0.0823,-0.0476
0.8495,0.0701,-0.0467
0.8451,0.0581,-0.0452
0.8404,0.0452,-0.0432
0.8353,0.033,-0.0406
0.8302,0.0217,-0.0376
0.8233,0.0112,-0.034
0.8162,0.001,-0.0293
0.8109,-0.0081,-0.0237
0.8055,-0.0171,-0.0169
0.7991,-0.0247,-0.01
0.7925,-0.0298,-0.0044
0.7862,-0.0352,-0.0005
0.7803,-0.0391,0.0027
0.7752,-0.042,0.0054
0.7698,-0.0457,0.0081
0.7652,-0.0486,0.0095
0.7605,-0.0513,0.01
0.7566,-0.0528,0.0086
0.7527,-0.0533,0.0049
0.7493,-0.0528,0.0002
0.7481,-0.0513,-0.0051
0.7503,-0.0481,-0.0112
0.7527,-0.0432,-0.0178
0.7561,-0.0371,-0.0237
0.7627,-0.0303,-0.0303
0.7713,-0.0217,-0.0379
0.7832,-0.0117,-0.0464
0.7981,-0.0012,-0.055
0.8135,0.0103,-0.063
0.8287,0.0235,-0.0713
0.8446,0.0388,-0.0794
0.8602,0.054,-0.0875
0.8744,0.0701,-0.0941
0.8861,0.0872,-0.0999
0.8986,0.1055,-0.106
0.9103,0.1244,-0.1094
0.9213,0.1432,-0.1102
0.932,0.1615,-0.1087
0.9423,0.1808,-0.107
0.9504,0.2008,-0.1043
0.956,0.2213,-0.0985
0.9618,0.2416,-0.0899
0.9665,0.2612,-0.0796
0.9701,0.2795,-0.0691
0.9736,0.2963,-0.0574
0.9758,0.3132,-0.0437
0.9772,0.3296,-0.0291
0.9794,0.3447,-0.0137
0.9819,0.3591,0.0017
0.9828,0.3726,0.0166
0.9826,0.3848,0.0318
0.9811,0.3953,0.0479
0.9802,0.4043,0.0638
0.9787,0.4126,0.0772
0.977,0.4202,0.0899
0.9748,0.427,0.1014
0.9738,0.4319,0.1121
0.9721,0.4351,0.1224
0.9677,0.44,0.1375
0.9635,0.4417,0.1454
0.9589,0.442,0.1517
0.9543,0.4402,0.1576
0.9482,0.4363,0.1615
0.9408,0.4302,0.1622
0.933,0.4219,0.159
0.9245,0.4121,0.1529
0.9154,0.4009,0.1434
0.9052,0.3887,0.1331
0.8949,0.3753,0.1236
0.8854,0.3604,0.1151
0.8746,0.343,0.107
0.8617,0.3249,0.0982
0.8473,0.3061,0.0889
0.8328,0.2861,0.0789
0.8184,0.2646,0.0694
0.8033,0.2419,0.0599
0.7886,0.2184,0.0528
0.7747,0.1945,0.0457
0.7617,0.172,0.0401
0.7505,0.1495,0.0374
0.7427,0.1275,0.0352
0.7373,0.106,0.0342
0.7327,0.0845,0.0342
0.7322,0.0628,0.0354
0.7341,0.0406,0.0374
0.7383,0.0188,0.0388
0.7459,-0.002,0.041
0.7566,-0.0217,0.044
0.771,-0.0398,0.0454
0.7886,-0.0567,0.0467
0.8084,-0.0716,0.0486
0.8297,-0.085,0.0508
0.8517,-0.0967,0.0535
0.8741,-0.1065,0.0569
0.8978,-0.1143,0.0606
0.9215,-0.1207,0.064
0.9455,-0.1256,0.0665
0.9684,-0.1285,0.0679
0.9887,-0.1305,0.0684
1.0073,-0.1305,0.0691
1.0244,-0.129,0.0689
1.0393,-0.1258,0.0679
1.0527,-0.1239,0.0665
1.0669,-0.1212,0.0643
1.0793,-0.1175,0.0618
1.0896,-0.1124,0.0601
1.0972,-0.1065,0.0564
1.1018,-0.1004,0.0528
1.1033,-0.0943,0.0503
1.1038,-0.0877,0.0503
1.1023,-0.0821,0.0511
1.0972,-0.0767,0.0511
1.0901,-0.0706,0.0498
1.0825,-0.0645,0.0479
1.073,-0.0579,0.0452
1.0615,-0.0506,0.042
1.0486,-0.0445,0.0369
1.0344,-0.0374,0.0303
1.0192,-0.031,0.0235
1.0034,-0.0254,0.0173
0.987,-0.0205,0.0115
0.9714,-0.0149,0.0046
0.956,-0.0093,-0.002
0.9416,-0.0046,-0.0088
0.9269,-0.0015,-0.0159
0.9122,0.002,-0.0235
0.8993,0.0056,-0.0298
0.8876,0.0086,-0.0352
0.8756,0.0098,-0.0408
0.8639,0.0115,-0.0459
0.8539,0.0125,-0.0503
0.8438,0.0139,-0.0547
0.8346,0.0147,-0.0589
0.8275,0.0147,-0.0638
0.8233,0.0147,-0.0677
0.8199,0.0134,-0.0708
0.8184,0.0115,-0.0733
0.8189,0.0086,-0.075
0.8209,0.0054,-0.0762
0.8233,0.0027,-0.0757
0.8277,0.0005,-0.0752
0.8338,-0.001,-0.0757
0.8392,-0.0012,-0.0767
0.8438,0.0002,-0.0789
0.8497,0.0007,-0.0818
0.8565,0.0012,-0.0853
0.8658,0.0024,-0.0897
0.8751,0.0046,-0.0916
0.8832,0.0086,-0.0914
0.8898,0.0137,-0.0889
0.8959,0.0181,-0.0853
0.9025,0.0227,-0.0826
0.9096,0.0291,-0.0799
0.9157,0.0369,-0.075
0.921,0.0447,-0.0711
0.9259,0.0515,-0.0687
0.9318,0.0574,-0.0645
0.9374,0.0635,-0.0591
0.944,0.0691,-0.0545
0.9499,0.0743,-0.0498
0.9569,0.0782,-0.0472
0.9643,0.0789,-0.0464
0.9699,0.0784,-0.0469
0.974,0.0777,-0.0489
0.9787,0.076,-0.0508
0.9836,0.0726,-0.0525
0.9887,0.0696,-0.054
0.9914,0.0669,-0.0552
0.9938,0.0638,-0.0547
0.9985,0.0603,-0.0552
1.0031,0.0574,-0.0574
1.0061,0.0562,-0.0606
1.0092,0.053,-0.0643
1.0122,0.0472,-0.0687
1.0163,0.0393,-0.076
1.021,0.03,-0.0833
1.0254,0.021,-0.0916
1.0315,0.0107,-0.1014
1.0393,-0.0007,-0.1109
1.0469,-0.011,-0.1182
1.0556,-0.0213,-0.1226
1.0669,-0.0337,-0.1244
1.0771,-0.0474,-0.1241
1.085,-0.0594,-0.1229
1.0928,-0.0701,-0.1207
1.0991,-0.0796,-0.1158
1.104,-0.0901,-0.108
1.1077,-0.1014,-0.0989
1.1101,-0.1109,-0.0867
1.1111,-0.1204,-0.073
1.1096,-0.1292,-0.0589
1.107,-0.138,-0.0452
1.1023,-0.1473,-0.032
1.0957,-0.1546,-0.0213
1.0881,-0.1617,-0.0112
1.0806,-0.1659,-0.001
1.0737,-0.1681,0.0083
1.0662,-0.1673,0.0169
1.0608,-0.1647,0.0257
1.0561,-0.1612,0.0335
1.052,-0.1534,0.0396
1.0481,-0.1483,0.0428
1.0412,-0.148,0.0428
1.0341,-0.1463,0.0442
1.0268,-0.14,0.0459
1.0185,-0.1324,0.0457
1.009,-0.1246,0.0447
1.0012,-0.1151,0.045
0.9965,-0.1033,0.0464
0.9948,-0.0919,0.0481
0.9946,-0.0814,0.0489
0.9963,-0.0716,0.0474
0.9977,-0.0618,0.045
0.9995,-0.053,0.0425
1.0021,-0.0454,0.0393
1.0048,-0.0386,0.0366
1.0073,-0.0308,0.0337
1.0092,-0.0232,0.0308
1.0112,-0.0176,0.0288
1.0122,-0.0129,0.0269
1.0126,-0.0088,0.0254
1.0134,-0.0059,0.0257
1.0141,-0.0042,0.0279
1.0151,-0.0034,0.031
1.0173,-0.0037,0.034
1.02,-0.0042,0.0362
1.0246,-0.0078,0.0391
1.0263,-0.012,0.0413
1.0276,-0.0154,0.0447
1.0283,-0.0195,0.0489
1.028,-0.0242,0.055
1.0271,-0.0288,0.0613
1.0246,-0.0335,0.0679
1.0229,-0.0381,0.076
1.021,-0.0418,0.0853
1.0188,-0.0454,0.0958
1.0163,-0.0484,0.1058
1.0151,-0.052,0.1151
1.0144,-0.0567,0.1241
1.0141,-0.0596,0.1331
1.0144,-0.0628,0.1422
1.0139,-0.0638,0.1507
1.0136,-0.0633,0.1603
1.0148,-0.063,0.1698
1.017,-0.0621,0.1776
1.0185,-0.0613,0.1835
1.021,-0.0596,0.1903
1.0246,-0.0569,0.1979
1.0285,-0.054,0.203
1.0327,-0.0508,0.2067
1.0376,-0.0484,0.2091
1.0412,-0.0474,0.2101
1.0449,-0.0462,0.2099
1.0493,-0.0454,0.2077
1.0532,-0.0462,0.204
1.0554,-0.0462,0.1989
1.0559,-0.0459,0.1932
1.0544,-0.0462,0.1876
1.0522,-0.0469,0.1827
1.0495,-0.0479,0.1771
1.0454,-0.0486,0.171
1.0398,-0.0491,0.1661
1.0337,-0.0501,0.1625
1.0271,-0.0511,0.16
1.02,-0.054,0.1583
1.0126,-0.0569,0.1566
1.0056,-0.0584,0.1568
1.0007,-0.0616,0.1583
0.9977,-0.066,0.161
0.9931,-0.0696,0.1654
0.9872,-0.0733,0.17
0.9814,-0.0777,0.1749
0.976,-0.0809,0.1798
0.9728,-0.0806,0.1852
0.9748,-0.0711,0.1979
0.9784,-0.0687,0.2099
0.9775,-0.0787,0.2152
0.9714,-0.0931,0.2174
0.9633,-0.1068,0.2211
0.9535,-0.1168,0.2296
0.942,-0.1253,0.2394
0.9301,-0.1339,0.2494
0.9176,-0.14,0.2599
0.9049,-0.1449,0.2709
0.8925,-0.1478,0.2814
0.88,-0.1463,0.2937
0.87,-0.1422,0.3068
0.8644,-0.1358,0.3193
0.8636,-0.1278,0.3308
0.8685,-0.1185,0.3401
0.878,-0.109,0.3469
0.8893,-0.0992,0.3516
0.9027,-0.0889,0.3538
0.9164,-0.0787,0.3533
0.9291,-0.0691,0.3496
0.9396,-0.0584,0.3437
0.9486,-0.0472,0.3362
0.9555,-0.0371,0.3266
0.9601,-0.0286,0.3169
0.9626,-0.021,0.3073
0.9623,-0.0139,0.2968
0.9584,-0.0061,0.2853
0.9516,0.001,0.2724
0.9425,0.0068,0.2587
0.933,0.0129,0.245
0.9237,0.0186,0.2331
0.9132,0.0227,0.2233
0.9034,0.0254,0.2147
0.8954,0.0252,0.2052
0.8883,0.023,0.1979
0.8827,0.0193,0.1923
0.878,0.0132,0.1867
0.8749,0.0061,0.1825
0.8734,-0.002,0.1791
0.8739,-0.0105,0.1761
0.8761,-0.0208,0.1747
0.8795,-0.0327,0.1737
0.8844,-0.0445,0.1747
0.8917,-0.054,0.1774
0.9012,-0.0635,0.1827
0.9115,-0.073,0.1893
0.9227,-0.0818,0.1957
0.9347,-0.0897,0.1998
0.9455,-0.0977,0.2011
0.9562,-0.1058,0.202
0.9665,-0.1136,0.2006
0.9758,-0.1187,0.1935
0.9858,-0.1231,0.1862
0.9955,-0.1253,0.1798
1.0051,-0.128,0.1727
1.0148,-0.1319,0.1644
1.0251,-0.1349,0.1549
1.0368,-0.1349,0.1454
1.0481,-0.1314,0.138
1.0586,-0.1273,0.1329
1.0679,-0.1202,0.128
1.0757,-0.1116,0.1217
1.0845,-0.1038,0.1156
1.094,-0.0936,0.1107
1.104,-0.0743,0.1073
1.1138,-0.0542,0.1041
1.1189,-0.0428,0.0977
1.1197,-0.0374,0.0899
1.1172,-0.0335,0.0848
1.1131,-0.0291,0.0828
1.1072,-0.0247,0.0836
1.1013,-0.0205,0.0906
1.0945,-0.0176,0.1016
1.0833,-0.0134,0.1151
1.0693,-0.009,0.1324
1.0527,-0.0056,0.1502
1.0346,-0.0024,0.1688
1.0151,-0.0007,0.1867
0.9941,-0.0012,0.2028
0.9719,-0.0022,0.2182
0.9499,-0.0049,0.2338
0.9293,-0.0098,0.2477
0.9071,-0.0139,0.2582
0.8841,-0.0178,0.2685
0.8646,-0.0252,0.2827
0.8468,-0.0349,0.2954
0.8306,-0.0445,0.3054
0.8145,-0.0525,0.3144
0.8006,-0.0596,0.3222
0.7884,-0.0657,0.3271
0.7784,-0.0711,0.3281
0.7718,-0.076,0.3254
0.7669,-0.0772,0.32
0.7681,-0.0789,0.3164
0.7742,-0.0823,0.3161
0.783,-0.0872,0.3154
0.7957,-0.0904,0.3159
0.8133,-0.0921,0.3205
0.8294,-0.0958,0.3254
0.8455,-0.097,0.3335
0.8619,-0.0965,0.3428
0.8749,-0.0982,0.3508
0.8859,-0.1019,0.3574
0.8968,-0.1048,0.3628
0.9054,-0.1068,0.3672
0.911,-0.107,0.3728
0.9157,-0.1077,0.3787
0.9193,-0.1107,0.3845
0.9215,-0.1153,0.3902
0.923,-0.1151,0.3965
0.9245,-0.107,0.4041
0.9262,-0.1043,0.4121
0.9232,-0.1085,0.4168
0.9052,-0.1209,0.4117
0.8878,-0.1285,0.4055
0.8695,-0.1363,0.3982
0.8512,-0.1432,0.3919
0.8331,-0.1493,0.3858
0.8131,-0.1561,0.3777
0.7935,-0.1573,0.3701
0.774,-0.1576,0.3608
0.7525,-0.1566,0.3508
0.7337,-0.1512,0.3408
0.7207,-0.1427,0.3345
0.7151,-0.1322,0.334
0.7178,-0.1212,0.3386
0.7256,-0.1097,0.3457
0.7373,-0.0977,0.3547
0.7505,-0.086,0.3638
0.7617,-0.0745,0.3713
0.771,-0.0625,0.3777
0.7793,-0.0508,0.3828
0.7869,-0.0396,0.3867
0.794,-0.0281,0.388
0.8006,-0.0161,0.3884
0.8082,-0.0034,0.3894
0.8167,0.0076,0.3928
0.8253,0.0186,0.3968
0.8328,0.031,0.4004
0.8399,0.0442,0.4051
0.8455,0.0569,0.409
0.849,0.0694,0.4121
0.8521,0.0809,0.4139
0.8553,0.0909,0.4139
0.8575,0.0999,0.4126
0.8592,0.1073,0.4087
0.8612,0.1121,0.4038
0.8634,0.1158,0.3987
0.8663,0.1182,0.3946
0.8705,0.119,0.3911
0.8746,0.1175,0.3894
0.8775,0.1153,0.3877
0.8802,0.1119,0.3858
0.8824,0.108,0.3853
0.8846,0.1038,0.3862
0.8868,0.1002,0.388
0.8895,0.0965,0.3899
0.8929,0.0919,0.3921
0.8966,0.0867,0.395
0.9008,0.0814,0.3997
0.9081,0.077,0.4051
0.9166,0.0708,0.4117
0.9245,0.063,0.42
0.9333,0.0557,0.4278
0.9418,0.0481,0.4356
0.9508,0.0401,0.4429
0.9601,0.0325,0.4495
0.9689,0.0249,0.4561
0.9765,0.0164,0.4634
0.9836,0.0076,0.4698
0.9897,-0.001,0.4749
0.9953,-0.0086,0.4796
0.9999,-0.0149,0.4842
1.0039,-0.0213,0.4903
1.007,-0.0264,0.4962
1.0092,-0.0308,0.502
1.0102,-0.0342,0.5077
1.0097,-0.0371,0.5126
1.0092,-0.0396,0.5167
1.009,-0.042,0.5213
1.0073,-0.0432,0.5265
1.0046,-0.0432,0.5336
1.0024,-0.0442,0.5416
0.9997,-0.0462,0.5504
0.9955,-0.0476,0.5573
0.9894,-0.0491,0.5631
0.9814,-0.0513,0.5668
0.9726,-0.0545,0.5685
0.964,-0.0579,0.57
0.9547,-0.0601,0.5719
0.9455,-0.0623,0.5751
0.9372,-0.0635,0.5783
0.9298,-0.0628,0.5817
0.9235,-0.0606,0.5868
0.9179,-0.0601,0.5937
0.9127,-0.0589,0.6003
0.9078,-0.0567,0.6088
0.9039,-0.0545,0.6181
0.9015,-0.0523,0.6281
0.9005,-0.0496,0.6408
0.9015,-0.0464,0.6543
0.9037,-0.0428,0.667
0.9064,-0.0403,0.6772
0.9103,-0.0381,0.6848
0.9149,-0.0374,0.6902
0.9208,-0.0381,0.6936
0.9267,-0.0388,0.6926
0.9335,-0.0391,0.687
0.942,-0.0384,0.6792
0.9508,-0.0386,0.6684
0.9591,-0.0391,0.655
0.9687,-0.0388,0.6393
0.9816,-0.0388,0.622
0.9951,-0.0384,0.602
1.007,-0.0374,0.5814
1.0197,-0.0366,0.5612
1.0339,-0.0374,0.5399
1.0483,-0.0391,0.5167
1.0627,-0.0403,0.4918
1.0781,-0.0413,0.4664
1.0923,-0.044,0.4402
1.1065,-0.0476,0.4136
1.1209,-0.0515,0.3858
1.1346,-0.0545,0.3569
1.1487,-0.0574,0.3288
1.1631,-0.0613,0.3022
1.1761,-0.0647,0.2768
1.19,-0.0677,0.2529
1.2052,-0.0694,0.2314
1.2208,-0.0699,0.2138
1.2384,-0.0694,0.2003
1.2565,-0.0674,0.191
1.2736,-0.065,0.184
1.2897,-0.0618,0.1793
1.3041,-0.0581,0.1786
1.3175,-0.0533,0.1827
1.3342,-0.0467,0.1913
1.352,-0.0381,0.2035
1.3701,-0.0303,0.2201
1.3862,-0.0249,0.2392
1.3991,-0.02,0.2597
1.4101,-0.0154,0.2822
1.4197,-0.0105,0.3051
1.4267,-0.0054,0.3281
1.4331,-0.0012,0.353
1.4375,-0.0007,0.3799
1.4385,-0.0024,0.4065
1.436,-0.0039,0.4322
1.4321,-0.0056,0.4569
1.425,-0.0081,0.4813
1.4153,-0.0117,0.5079
1.4031,-0.0137,0.536
1.3884,-0.0139,0.5636
1.3703,-0.0132,0.59
1.3493,-0.01,0.6144
1.3268,-0.0068,0.6367
1.3041,-0.0037,0.655
1.2833,-0.001,0.6684
1.2626,0.001,0.6779
1.2416,0.0061,0.6843
1.2208,0.0107,0.6858
1.2013,0.0134,0.6867
1.1854,0.0178,0.6848
1.1697,0.0247,0.6794
1.1485,0.0296,0.666
1.1245,0.034,0.6452
1.1111,0.0423,0.6259
1.1057,0.0533,0.6054
1.0955,0.0589,0.5795
1.072,0.0645,0.5314
1.0561,0.0721,0.4955
1.0432,0.0811,0.4556
1.0332,0.088,0.4141
1.0254,0.0953,0.3735
1.0185,0.108,0.3364
1.0114,0.1239,0.2983
1.0039,0.1385,0.2585
0.997,0.1556,0.2184
0.9943,0.1759,0.1803
0.9963,0.1962,0.1444
0.9992,0.2169,0.1112
1.0014,0.2416,0.0789
1.007,0.2726,0.0459
1.0151,0.3054,0.0139
1.0217,0.3374,-0.0132
1.0268,0.3667,-0.0388
1.0332,0.3902,-0.0638
1.0427,0.4112,-0.0894
1.0544,0.4258,-0.1146
1.0669,0.43,-0.1388
1.0781,0.4307,-0.1605
1.0847,0.4385,-0.181
1.0869,0.4561,-0.2038
1.0899,0.4735,-0.2282
1.0947,0.4879,-0.2467
1.1013,0.5011,-0.2551
1.1094,0.5133,-0.2546
1.1187,0.525,-0.2487
1.1282,0.5365,-0.2399
1.1377,0.548,-0.2304
1.1495,0.5587,-0.2206
1.1609,0.5702,-0.2106
1.1729,0.581,-0.2006
1.1873,0.589,-0.1901
1.2039,0.5946,-0.1776
1.2215,0.5993,-0.1639
1.2401,0.6032,-0.1471
1.2606,0.6054,-0.1278
1.2826,0.6059,-0.1068
1.3056,0.6037,-0.0814
1.3295,0.6003,-0.0547
1.3527,0.5966,-0.0291
1.3764,0.591,-0.0061
1.4004,0.5846,0.0137
1.4221,0.5778,0.03
1.4412,0.5683,0.0423
1.4544,0.5526,0.0481
1.457,0.5284,0.0459
1.4443,0.4994,0.0349
1.4162,0.4718,0.0171
