accx,accy,accz
0.953,-0.0266,0.3117
0.9538,-0.0271,0.312
0.9533,-0.0274,0.313
0.9526,-0.0276,0.3127
0.9521,-0.0281,0.3117
0.9521,-0.0279,0.311
0.9521,-0.0274,0.3108
0.9513,-0.0276,0.3105
0.9516,-0.0276,0.3117
0.9521,-0.0281,0.3125
0.9526,-0.0288,0.3125
0.9526,-0.0291,0.3115
0.9526,-0.0291,0.3117
0.9528,-0.0288,0.3127
0.9528,-0.0296,0.3134
0.9528,-0.0296,0.3132
0.9533,-0.0298,0.3132
0.953,-0.0305,0.3134
0.9528,-0.0313,0.3137
0.9528,-0.0308,0.3134
0.9535,-0.0298,0.3132
0.9545,-0.0298,0.3139
0.955,-0.0308,0.3144
0.9543,-0.0308,0.3144
0.9535,-0.0305,0.3139
0.953,-0.0308,0.3144
0.9535,-0.0315,0.3139
0.9538,-0.0325,0.3134
0.954,-0.0322,0.313
0.9543,-0.0318,0.3127
0.954,-0.0318,0.312
0.9538,-0.0315,0.3112
0.954,-0.0313,0.3103
0.9535,-0.0313,0.3095
0.9528,-0.0313,0.3086
0.9535,-0.0313,0.3073
0.9545,-0.0315,0.3068
0.9543,-0.0327,0.3064
0.954,-0.0325,0.3051
0.9535,-0.0318,0.3042
0.9545,-0.031,0.3046
0.9555,-0.0303,0.3054
0.956,-0.0303,0.3046
0.9565,-0.03,0.3044
0.9572,-0.0296,0.3056
0.9579,-0.0296,0.3066
0.9582,-0.0298,0.3066
0.9589,-0.0296,0.3066
0.9589,-0.0293,0.3071
0.9589,-0.0279,0.3073
0.9596,-0.0269,0.3073
0.9599,-0.0274,0.3068
0.9591,-0.0274,0.3068
0.9587,-0.0269,0.3071
0.9589,-0.0261,0.3071
0.9587,-0.0257,0.3076
0.9584,-0.0252,0.3068
0.9572,-0.0242,0.3061
0.9555,-0.0235,0.3056
0.955,-0.023,0.3059
0.9557,-0.0225,0.3056
0.9557,-0.0232,0.3051
0.9555,-0.0235,0.3056
0.9552,-0.0227,0.3056
0.9552,-0.0227,0.3056
0.956,-0.0232,0.3054
0.9547,-0.0235,0.3056
0.9535,-0.0232,0.3071
0.9538,-0.023,0.3071
0.9545,-0.0237,0.3066
0.9547,-0.0244,0.3066
0.955,-0.0249,0.3073
0.954,-0.0254,0.3083
0.9535,-0.0261,0.3095
0.9543,-0.0259,0.31
0.9547,-0.0266,0.3095
0.955,-0.0271,0.309
0.9547,-0.0279,0.3098
0.9543,-0.0281,0.3103
0.9538,-0.0286,0.3105
0.9535,-0.0293,0.3105
0.954,-0.0293,0.31
0.9547,-0.0298,0.3098
0.9545,-0.0298,0.3098
0.9545,-0.0291,0.31
0.9555,-0.0291,0.3103
0.956,-0.0296,0.3105
0.956,-0.03,0.31
0.9565,-0.0298,0.3095
0.9567,-0.0296,0.3093
0.9565,-0.0298,0.3095
0.9555,-0.0305,0.3095
0.9557,-0.0308,0.3093
0.9567,-0.0305,0.3093
0.9572,-0.03,0.31
0.9572,-0.0303,0.3103
0.9574,-0.0298,0.3098
0.9574,-0.0298,0.3093
0.9572,-0.0288,0.3098
0.9569,-0.0283,0.3105
0.9567,-0.0296,0.311
0.9569,-0.0298,0.3115
0.9572,-0.0291,0.3117
0.9565,-0.0291,0.3108
0.9552,-0.0296,0.3105
0.9547,-0.0303,0.3115
0.955,-0.0303,0.3112
0.9552,-0.0293,0.3103
0.9545,-0.0286,0.31
0.9535,-0.0291,0.3098
0.9535,-0.0291,0.3103
0.9538,-0.0288,0.311
0.953,-0.0288,0.311
0.9523,-0.0291,0.3112
0.9523,-0.0293,0.311
0.9518,-0.0296,0.3103
0.9513,-0.0291,0.3098
0.9521,-0.0283,0.3115
0.9516,-0.0288,0.3122
0.9516,-0.0293,0.312
0.9511,-0.0288,0.3122
0.9508,-0.0288,0.313
0.9504,-0.0296,0.3132
0.9504,-0.03,0.3132
0.9508,-0.03,0.3134
0.9508,-0.0296,0.3125
0.9501,-0.0296,0.3115
0.9499,-0.0296,0.311
0.9501,-0.0298,0.3117
0.9506,-0.0296,0.3127
0.9508,-0.0286,0.3127
0.9501,-0.0288,0.313
0.9508,-0.0293,0.313
0.9518,-0.0291,0.3127
0.9521,-0.0291,0.3127
0.9528,-0.0293,0.3132
0.9535,-0.0296,0.3132
0.9535,-0.0298,0.3125
0.9538,-0.0293,0.312
0.9543,-0.0293,0.3117
0.9545,-0.0291,0.3117
0.9547,-0.0293,0.312
0.9547,-0.0293,0.3127
0.9545,-0.0291,0.313
0.9552,-0.0296,0.3122
0.9557,-0.0293,0.312
0.956,-0.0293,0.3112
0.9557,-0.0293,0.3115
0.956,-0.0296,0.3122
0.9565,-0.0296,0.3122
0.9569,-0.0291,0.3115
0.9567,-0.0281,0.311
0.9567,-0.0279,0.3112
0.9572,-0.0281,0.3117
0.9582,-0.0283,0.3122
0.9579,-0.0291,0.3122
0.9572,-0.0288,0.3122
0.9567,-0.0293,0.3122
0.956,-0.0293,0.3132
0.9562,-0.0291,0.3132
0.9567,-0.0288,0.3122
0.9572,-0.0291,0.3117
0.9572,-0.0291,0.3122
0.9567,-0.0286,0.3125
0.9574,-0.0286,0.3122
0.9579,-0.0286,0.312
0.9577,-0.0279,0.312
0.9567,-0.0279,0.3115
0.9555,-0.0288,0.3117
0.9557,-0.0291,0.312
0.9565,-0.0293,0.312
0.956,-0.0293,0.3122
0.9547,-0.0288,0.313
0.9543,-0.0288,0.3132
0.9557,-0.0283,0.313
0.9562,-0.0279,0.3127
0.955,-0.0283,0.3122
0.9555,-0.0283,0.3127
0.955,-0.0283,0.3127
0.9545,-0.0283,0.3117
0.9543,-0.0286,0.311
0.9538,-0.0288,0.3098
0.954,-0.0293,0.31
0.954,-0.0291,0.3098
0.954,-0.0283,0.309
0.9538,-0.0288,0.3078
0.9543,-0.0293,0.3078
0.9545,-0.0291,0.3076
0.9545,-0.0286,0.3081
0.954,-0.0279,0.3076
0.9528,-0.0283,0.3071
0.9523,-0.0293,0.3068
0.9528,-0.0293,0.3068
0.953,-0.0283,0.3068
0.9526,-0.0279,0.3066
0.9526,-0.0276,0.3064
0.9528,-0.0269,0.3059
0.953,-0.0266,0.3059
0.9535,-0.0271,0.3059
0.954,-0.0274,0.3071
0.9543,-0.0269,0.3081
0.955,-0.0259,0.3086
0.955,-0.0257,0.3098
0.9552,-0.0259,0.3105
0.956,-0.0257,0.3115
0.9567,-0.0259,0.3132
0.9565,-0.0264,0.3152
0.9565,-0.0266,0.3156
0.9572,-0.0269,0.3154
0.9562,-0.0266,0.3156
0.9555,-0.0259,0.3156
0.9557,-0.0266,0.3144
0.9567,-0.0274,0.3139
0.9569,-0.0274,0.3134
0.9565,-0.0276,0.3127
0.9552,-0.0279,0.3125
0.9545,-0.0279,0.3117
0.954,-0.0276,0.3105
0.954,-0.0274,0.3098
0.953,-0.0274,0.3095
0.9516,-0.0276,0.3095
0.9506,-0.0281,0.309
0.9501,-0.0283,0.3078
0.9499,-0.0283,0.3073
0.9499,-0.0286,0.3068
0.9499,-0.0283,0.3061
0.9499,-0.0283,0.3061
0.9494,-0.0293,0.3056
0.9486,-0.0296,0.3061
0.9491,-0.0293,0.3066
0.9499,-0.0288,0.3071
0.9506,-0.0291,0.3073
0.9501,-0.0288,0.3073
0.9501,-0.0291,0.3086
0.9506,-0.0293,0.3093
0.9511,-0.0291,0.3103
0.9516,-0.0296,0.3112
0.9518,-0.0298,0.3125
0.9528,-0.0296,0.3134
0.9533,-0.0298,0.3144
0.9538,-0.0291,0.3159
0.955,-0.0279,0.3171
0.9555,-0.0271,0.3181
0.9557,-0.0274,0.3188
0.9565,-0.0276,0.3193
0.9569,-0.0274,0.3196
0.9574,-0.0281,0.3193
0.9589,-0.0269,0.3186
0.9599,-0.0259,0.3188
0.9599,-0.0254,0.3186
0.9596,-0.0257,0.3174
0.9604,-0.0257,0.3171
0.9609,-0.0252,0.3164
0.9606,-0.0249,0.3154
0.9604,-0.0244,0.3139
0.9606,-0.0249,0.3125
0.9599,-0.0249,0.3115
0.9594,-0.0247,0.3098
0.9591,-0.0247,0.3093
0.9584,-0.0252,0.3083
0.9569,-0.0257,0.3078
0.9569,-0.0257,0.3078
0.9577,-0.0257,0.3073
0.9574,-0.0257,0.3081
0.956,-0.0259,0.3086
0.955,-0.0266,0.3083
0.9545,-0.0276,0.3088
0.9543,-0.0286,0.3086
0.954,-0.0296,0.3088
0.9535,-0.0296,0.309
0.9528,-0.0293,0.3098
0.9528,-0.0293,0.3112
0.9528,-0.0298,0.3115
0.9528,-0.0305,0.3115
0.953,-0.0308,0.3117
0.953,-0.0313,0.312
0.953,-0.0318,0.3132
0.9535,-0.032,0.3139
0.9535,-0.0322,0.3139
0.953,-0.0327,0.3147
0.9533,-0.0325,0.3147
0.9533,-0.032,0.3139
0.9533,-0.0313,0.3139
0.9535,-0.031,0.3125
0.9533,-0.031,0.312
0.9533,-0.031,0.3122
0.953,-0.0303,0.3117
0.9533,-0.0293,0.3115
0.9538,-0.0291,0.3115
0.9543,-0.0288,0.3117
0.9535,-0.0291,0.3117
0.9528,-0.0291,0.3117
0.9528,-0.0291,0.3122
0.9528,-0.0288,0.312
0.954,-0.0281,0.3115
0.9538,-0.0276,0.311
0.953,-0.0269,0.3115
0.9523,-0.0269,0.312
0.9518,-0.0271,0.312
0.9513,-0.0276,0.312
0.9508,-0.0279,0.3125
0.9513,-0.0276,0.312
0.9513,-0.0274,0.3112
0.9501,-0.0269,0.312
0.9491,-0.0261,0.3117
0.9486,-0.0264,0.311
0.9489,-0.0266,0.311
0.9496,-0.0266,0.311
0.9496,-0.0266,0.3112
0.9494,-0.0257,0.311
0.9499,-0.0247,0.3105
0.9504,-0.0247,0.3108
0.9501,-0.0247,0.311
0.9499,-0.0249,0.311
0.9511,-0.0257,0.3117
0.9518,-0.0259,0.3122
0.9526,-0.0261,0.3122
0.9538,-0.0261,0.313
0.9545,-0.0257,0.3132
0.9538,-0.0261,0.3134
0.953,-0.0269,0.3137
0.9545,-0.0274,0.3139
0.9565,-0.0271,0.3144
0.9567,-0.0264,0.3139
0.9562,-0.0264,0.3139
0.9567,-0.0264,0.3137
0.9574,-0.0261,0.3132
0.9574,-0.0264,0.3134
0.9569,-0.0266,0.3127
0.9569,-0.0266,0.3115
0.9577,-0.0264,0.3115
0.9577,-0.0264,0.311
0.9577,-0.0271,0.3103
0.9574,-0.0279,0.3098
0.9577,-0.0281,0.31
0.9579,-0.0279,0.3098
0.9577,-0.0279,0.3093
0.9579,-0.0276,0.309
0.9579,-0.0276,0.309
0.9577,-0.0286,0.3095
0.9582,-0.0291,0.3088
0.9584,-0.0298,0.3093
0.9582,-0.0298,0.3098
0.9584,-0.0291,0.3098
0.9589,-0.0288,0.311
0.9594,-0.0288,0.3115
0.9599,-0.0291,0.3117
0.9599,-0.0293,0.3115
0.9591,-0.0291,0.311
0.9587,-0.0286,0.311
0.9582,-0.0291,0.3122
0.9577,-0.0303,0.3122
0.9572,-0.0305,0.3112
0.956,-0.0298,0.311
0.956,-0.0293,0.3115
0.9557,-0.0296,0.3122
0.9538,-0.0286,0.3122
0.9523,-0.0276,0.312
0.9518,-0.0271,0.3115
0.9518,-0.0274,0.311
0.9511,-0.0281,0.3105
0.9506,-0.0291,0.3108
0.9496,-0.0286,0.311
0.9491,-0.0276,0.3117
0.9491,-0.0271,0.3117
0.9484,-0.0279,0.3117
0.9474,-0.0281,0.3122
0.9472,-0.0276,0.3137
0.9467,-0.0269,0.3149
0.9467,-0.0266,0.3156
0.9477,-0.0274,0.3159
0.9477,-0.0281,0.3159
0.9477,-0.0283,0.3169
0.9477,-0.0276,0.3183
0.9479,-0.0274,0.3188
0.9479,-0.0274,0.3183
0.9482,-0.0274,0.3186
0.9491,-0.0269,0.3178
0.9506,-0.0276,0.3174
0.9508,-0.0286,0.3169
0.9521,-0.0288,0.3166
0.9518,-0.0281,0.3164
0.9513,-0.0269,0.3164
0.9511,-0.0259,0.3154
0.9521,-0.0261,0.3139
0.953,-0.0274,0.3142
0.9543,-0.0276,0.3139
0.955,-0.0274,0.3137
0.9555,-0.0281,0.3139
0.956,-0.0274,0.3139
0.9565,-0.0281,0.3132
0.9562,-0.0286,0.313
0.9565,-0.0283,0.3132
0.9562,-0.0279,0.3137
0.9557,-0.0281,0.3142
0.9572,-0.0281,0.3154
0.9579,-0.0283,0.3156
0.9579,-0.0286,0.3147
0.9582,-0.0286,0.3149
0.9567,-0.0291,0.3154
0.9555,-0.0296,0.3159
0.9552,-0.0296,0.3152
0.9555,-0.0298,0.3152
0.9552,-0.0298,0.3156
0.955,-0.0298,0.3152
0.954,-0.0293,0.3144
0.9533,-0.0291,0.3144
0.954,-0.0296,0.3144
0.9543,-0.0296,0.3139
0.9547,-0.0296,0.3137
0.9535,-0.0296,0.3142
0.9521,-0.0291,0.3134
0.9521,-0.0286,0.312
0.9521,-0.0288,0.3115
0.9513,-0.0296,0.3117
0.9513,-0.0293,0.3125
0.9516,-0.0288,0.3125
0.9516,-0.0291,0.3132
0.9513,-0.0281,0.3134
0.9516,-0.0274,0.3142
0.9513,-0.0274,0.3149
0.9516,-0.0279,0.3139
0.9513,-0.0281,0.3127
0.9506,-0.0274,0.3127
0.9499,-0.0274,0.3134
0.9496,-0.0281,0.3137
0.9499,-0.0283,0.3142
0.9501,-0.0276,0.3147
0.9501,-0.0271,0.3147
0.9501,-0.0269,0.3147
0.9504,-0.0264,0.3149
0.9501,-0.0264,0.3149
0.9504,-0.0259,0.3154
0.9508,-0.0266,0.3154
0.9506,-0.0266,0.3161
0.9508,-0.0261,0.3164
0.9518,-0.0257,0.3161
0.9518,-0.0259,0.3159
0.9513,-0.0264,0.3147
0.9511,-0.0269,0.3137
0.9516,-0.0266,0.3134
0.9516,-0.0269,0.3137
0.9521,-0.0271,0.3139
0.9526,-0.0279,0.3134
0.9526,-0.0276,0.313
0.9521,-0.0269,0.3137
0.9523,-0.0269,0.3144
0.9533,-0.0274,0.3144
0.954,-0.0274,0.3132
0.954,-0.0271,0.3117
0.9538,-0.0274,0.3115
0.9547,-0.0281,0.3112
0.955,-0.0281,0.3112
0.9547,-0.0286,0.3108
0.9547,-0.0296,0.3105
0.9552,-0.0293,0.31
0.9552,-0.0293,0.3105
0.955,-0.0293,0.31
0.955,-0.0291,0.3098
0.956,-0.0288,0.31
0.9557,-0.0293,0.31
0.9552,-0.0303,0.31
0.956,-0.0305,0.3098
0.9567,-0.03,0.3098
0.9574,-0.0298,0.3095
0.9572,-0.031,0.3093
0.9567,-0.0315,0.3093
0.9569,-0.0318,0.3098
0.9567,-0.0308,0.31
0.9577,-0.0305,0.3103
0.9579,-0.031,0.31
0.9574,-0.0315,0.309
0.9572,-0.032,0.3086
0.9567,-0.0315,0.3086
0.9565,-0.0308,0.3088
0.9574,-0.031,0.3088
0.9579,-0.0318,0.3095
0.9577,-0.0318,0.3098
0.9574,-0.031,0.3108
0.9569,-0.0303,0.3115
0.9565,-0.0303,0.3117
0.9565,-0.031,0.3108
0.9557,-0.031,0.3105
0.9555,-0.03,0.3103
0.955,-0.0296,0.311
0.9543,-0.0293,0.311
0.9545,-0.0291,0.3112
0.9545,-0.0296,0.3115
0.954,-0.0293,0.3112
0.954,-0.0286,0.3108
0.9533,-0.0283,0.31
0.9526,-0.0276,0.3098
0.9526,-0.0274,0.3103
0.9528,-0.0274,0.31
0.953,-0.0274,0.3098
0.9528,-0.0271,0.3093
0.9526,-0.0274,0.3088
0.9528,-0.0271,0.3088
0.953,-0.0266,0.3088
0.9528,-0.0269,0.3088
0.9528,-0.0276,0.309
0.953,-0.0281,0.309
0.9528,-0.0283,0.3088
0.9521,-0.0281,0.3081
0.9521,-0.0269,0.3076
0.9533,-0.0266,0.3086
0.9538,-0.0266,0.3093
0.9538,-0.0264,0.3093
0.9538,-0.0264,0.309
0.9533,-0.0274,0.3093
0.9533,-0.0281,0.3103
0.9547,-0.0281,0.312
0.9565,-0.0274,0.3122
0.9574,-0.0274,0.3127
0.9577,-0.0283,0.3137
0.9587,-0.0291,0.3147
0.9589,-0.0283,0.3156
0.9591,-0.0274,0.3159
0.9589,-0.0281,0.3161
0.9587,-0.0283,0.3171
0.9594,-0.0281,0.3171
0.9591,-0.0286,0.3166
0.9587,-0.0291,0.3159
0.9589,-0.0293,0.3147
0.9584,-0.0298,0.3137
0.9577,-0.0303,0.3125
0.9572,-0.0305,0.312
0.9567,-0.0305,0.312
0.9562,-0.0298,0.3117
0.9552,-0.0296,0.3105
0.954,-0.03,0.3095
0.9533,-0.0298,0.309
0.9535,-0.0298,0.3088
0.9528,-0.03,0.3081
0.9513,-0.0298,0.3066
0.9499,-0.0296,0.3066
0.9486,-0.03,0.3076
0.9489,-0.0298,0.3086
0.9499,-0.0296,0.309
0.9501,-0.0296,0.3098
0.9489,-0.0296,0.3108
0.9482,-0.0298,0.311
0.9491,-0.0293,0.311
0.9504,-0.0293,0.3127
0.9494,-0.0298,0.3156
0.9489,-0.03,0.3169
0.9491,-0.0296,0.3171
0.9501,-0.0291,0.3183
0.9508,-0.0291,0.3203
0.9513,-0.0291,0.3222
0.9513,-0.0288,0.323
0.9518,-0.0283,0.3235
0.9523,-0.0281,0.3244
0.953,-0.0281,0.3254
0.9538,-0.0288,0.3257
0.954,-0.0291,0.3249
0.9545,-0.0288,0.3244
0.9552,-0.0281,0.3242
0.955,-0.0269,0.3235
0.955,-0.0259,0.3227
0.9552,-0.0259,0.3222
0.956,-0.0264,0.3218
0.9555,-0.0261,0.3213
0.9552,-0.0249,0.3191
0.956,-0.0242,0.3164
0.956,-0.0242,0.3152
0.9555,-0.0239,0.3134
0.955,-0.0242,0.3125
0.9545,-0.0242,0.312
0.9543,-0.0242,0.3115
0.9538,-0.0244,0.311
0.9535,-0.0249,0.3108
0.9543,-0.0244,0.3103
0.9535,-0.0242,0.3098
0.9523,-0.0247,0.31
0.9526,-0.0257,0.31
0.9533,-0.0266,0.3103
0.9533,-0.0274,0.3115
0.953,-0.0276,0.311
0.953,-0.0276,0.311
0.9523,-0.0281,0.3117
0.9521,-0.0298,0.312
0.9513,-0.0305,0.3117
0.9511,-0.0308,0.3117
0.9513,-0.0315,0.3115
0.9518,-0.032,0.3108
0.9526,-0.0318,0.3103
0.9528,-0.0313,0.31
0.953,-0.0318,0.3098
0.9535,-0.0318,0.31
0.954,-0.0313,0.3086
0.9543,-0.0313,0.3076
0.9547,-0.0315,0.3066
0.9557,-0.0313,0.3061
0.9562,-0.031,0.3064
0.9565,-0.0313,0.3066
0.9574,-0.0308,0.3064
0.9577,-0.0305,0.3066
0.9574,-0.0305,0.3068
0.9577,-0.031,0.3068
0.9579,-0.0313,0.3076
0.9587,-0.031,0.3083
0.9589,-0.0305,0.3081
0.9579,-0.0305,0.3081
0.9582,-0.0303,0.3086
0.9582,-0.0296,0.309
0.9577,-0.0291,0.3088
0.9574,-0.0291,0.3093
0.9572,-0.0288,0.31
0.9574,-0.0296,0.31
0.9574,-0.03,0.3105
0.9569,-0.0298,0.3103
0.956,-0.0298,0.3108
0.9547,-0.03,0.311
0.954,-0.0303,0.31
0.9538,-0.0305,0.3103
0.9543,-0.0305,0.3115
0.954,-0.03,0.3122
0.953,-0.0298,0.3125
0.9535,-0.03,0.312
0.954,-0.0305,0.312
0.9543,-0.0303,0.3127
0.9533,-0.0305,0.3134
0.9518,-0.0308,0.3137
0.9523,-0.03,0.3139
0.9535,-0.0298,0.3142
0.953,-0.0303,0.3144
0.953,-0.0298,0.3139
0.9526,-0.03,0.3147
0.9521,-0.0305,0.3159
0.9523,-0.0305,0.3159
0.9528,-0.031,0.3159
0.9533,-0.0308,0.3166
0.9533,-0.0313,0.3166
0.9526,-0.031,0.3166
0.9516,-0.0305,0.3166
0.9516,-0.0308,0.3171
0.9521,-0.0315,0.3166
0.9516,-0.0315,0.3166
0.9508,-0.0315,0.3171
0.9496,-0.0318,0.3164
0.9499,-0.031,0.3144
0.9499,-0.0303,0.3132
0.9494,-0.0293,0.3122
0.9489,-0.0293,0.3115
0.9482,-0.0298,0.311
0.9484,-0.03,0.311
0.9491,-0.0305,0.311
0.9496,-0.031,0.311
0.9496,-0.0305,0.3112
0.9499,-0.0303,0.3112
0.9499,-0.0305,0.3117
0.9501,-0.0303,0.3125
0.9506,-0.03,0.3125
0.9513,-0.0305,0.313
0.9526,-0.0308,0.3139
0.9533,-0.0303,0.3144
0.9538,-0.0298,0.3147
0.9535,-0.0298,0.3154
0.9535,-0.0293,0.3152
0.9533,-0.0286,0.3154
0.9538,-0.0288,0.3154
0.9547,-0.0283,0.3152
0.9543,-0.0288,0.3149
0.9533,-0.0296,0.3142
0.9535,-0.0293,0.313
0.954,-0.0283,0.3125
0.9547,-0.0274,0.3117
0.9543,-0.0276,0.3112
0.9545,-0.0281,0.3108
0.955,-0.0283,0.311
0.955,-0.0276,0.3108
0.9545,-0.0276,0.3112
0.9557,-0.0274,0.3117
0.956,-0.0281,0.312
0.9562,-0.0283,0.3122
0.9562,-0.0283,0.3134
0.9562,-0.0283,0.3147
0.9572,-0.0283,0.3156
0.9577,-0.0291,0.3156
0.9577,-0.0293,0.3154
0.9579,-0.0296,0.3154
0.9577,-0.0293,0.3164
0.9577,-0.0291,0.3171
0.9572,-0.0293,0.3169
0.956,-0.0298,0.3161
0.9552,-0.0298,0.3159
0.9538,-0.0291,0.3152
0.9528,-0.0291,0.3152
0.9528,-0.0298,0.3142
0.9528,-0.0305,0.3125
0.9528,-0.0308,0.3117
0.9528,-0.0315,0.312
0.9523,-0.0313,0.3117
0.9521,-0.032,0.3112
0.9513,-0.0335,0.3103
0.9513,-0.0342,0.309
0.9521,-0.0335,0.309
0.9528,-0.0337,0.309
0.9528,-0.034,0.3086
0.9523,-0.0347,0.3086
0.9528,-0.0357,0.309
0.9538,-0.0354,0.31
0.9545,-0.0347,0.3108
0.9547,-0.0349,0.312
0.9545,-0.0354,0.313
0.9545,-0.0357,0.3139
0.9545,-0.0354,0.3147
0.9547,-0.0354,0.3159
0.9552,-0.0349,0.3164
0.9545,-0.0352,0.3166
0.9543,-0.0359,0.3164
0.9543,-0.0352,0.3169
0.9545,-0.034,0.3178
0.955,-0.0332,0.3171
0.9547,-0.0327,0.3161
0.9543,-0.0327,0.3156
0.9538,-0.0318,0.3149
0.9526,-0.031,0.3147
0.9523,-0.0313,0.3142
0.9528,-0.031,0.3137
0.9528,-0.0296,0.3139
0.9523,-0.0291,0.3134
0.9526,-0.0293,0.3127
0.9521,-0.0288,0.3132
0.9513,-0.0288,0.3137
0.9513,-0.0286,0.313
0.9508,-0.0283,0.3122
0.9504,-0.0279,0.3125
0.9508,-0.0269,0.3127
0.9508,-0.0266,0.3127
0.9501,-0.0266,0.3137
0.9501,-0.0269,0.3142
0.9506,-0.0271,0.3149
0.9501,-0.0264,0.3154
0.9501,-0.0266,0.3159
0.9499,-0.0274,0.3166
0.9496,-0.0276,0.3176
0.9499,-0.0276,0.3176
0.9499,-0.0276,0.3176
0.9506,-0.0274,0.3181
0.9513,-0.0269,0.3181
0.9513,-0.0264,0.3181
0.9508,-0.0266,0.3181
0.9516,-0.0274,0.3181
0.9528,-0.0276,0.3181
0.9538,-0.0271,0.3171
0.954,-0.0271,0.3166
0.9545,-0.0266,0.3166
0.9547,-0.0266,0.3161
0.955,-0.0274,0.3159
0.956,-0.0279,0.3164
0.9567,-0.0283,0.3169
0.9577,-0.0281,0.3166
0.9584,-0.0283,0.3156
0.9579,-0.0286,0.3154
0.9584,-0.0286,0.3152
0.9587,-0.0291,0.3147
0.9582,-0.0291,0.3137
0.9582,-0.0283,0.3134
0.9584,-0.0281,0.3134
0.9587,-0.0283,0.3127
0.9591,-0.0286,0.3115
0.9587,-0.0281,0.3115
0.9582,-0.0281,0.3112
0.9574,-0.0286,0.3108
0.9577,-0.0288,0.3103
0.9567,-0.0293,0.3098
0.956,-0.0296,0.3098
0.9569,-0.0296,0.3095
0.9569,-0.0291,0.3088
0.9562,-0.0293,0.309
0.956,-0.0291,0.3093
0.9562,-0.0291,0.309
0.9562,-0.0303,0.3095
0.956,-0.0305,0.3095
0.9557,-0.0298,0.3088
0.9555,-0.0291,0.3086
0.9538,-0.0291,0.309
0.953,-0.0298,0.3103
0.9535,-0.03,0.3112
0.9543,-0.0298,0.3112
0.9535,-0.0293,0.31
0.9538,-0.0298,0.3088
0.9545,-0.0303,0.3103
0.954,-0.0305,0.312
0.9528,-0.0305,0.3122
0.9526,-0.0303,0.3125
0.9518,-0.0303,0.3117
0.9506,-0.03,0.3117
0.9499,-0.03,0.3115
0.9501,-0.0303,0.3125
0.9504,-0.0305,0.3142
0.9508,-0.0305,0.3142
0.9504,-0.031,0.3134
0.9501,-0.031,0.3134
0.9501,-0.0303,0.3139
0.9496,-0.0293,0.3142
0.9501,-0.03,0.3144
0.9501,-0.0298,0.3139
0.9491,-0.0303,0.3137
0.9491,-0.03,0.3139
0.9496,-0.0305,0.3142
0.9491,-0.0313,0.3139
0.9482,-0.031,0.3137
0.9486,-0.0305,0.3137
0.9486,-0.0303,0.3139
0.9482,-0.03,0.3134
0.9474,-0.0296,0.3142
0.9482,-0.0298,0.3152
0.9484,-0.0298,0.3154
0.9486,-0.0298,0.3152
0.9491,-0.0296,0.3147
0.9499,-0.0288,0.3144
0.9494,-0.0281,0.3144
0.9484,-0.0291,0.3144
0.9486,-0.0296,0.3147
0.9496,-0.0296,0.3142
0.9486,-0.0291,0.3137
0.9472,-0.0288,0.3142
0.9472,-0.0286,0.3142
0.9477,-0.0283,0.313
0.9474,-0.0281,0.3125
0.9472,-0.0281,0.3115
0.9469,-0.0281,0.3095
0.9472,-0.0283,0.3083
0.9477,-0.0286,0.3083
0.9484,-0.0286,0.3081
0.9499,-0.0281,0.3071
0.9506,-0.0286,0.3059
0.9508,-0.0286,0.3059
0.9516,-0.0281,0.3051
0.953,-0.0286,0.3046
0.9547,-0.0291,0.3039
0.9555,-0.0298,0.3046
0.9555,-0.031,0.3051
0.9565,-0.0308,0.3054
0.9584,-0.0305,0.3054
0.9606,-0.0308,0.3056
0.9618,-0.032,0.3066
0.9626,-0.033,0.3066
0.9633,-0.0335,0.3061
0.9638,-0.0335,0.3061
0.9633,-0.034,0.3068
0.9623,-0.0347,0.3068
0.9631,-0.0349,0.3071
0.9633,-0.0342,0.3073
0.9635,-0.0352,0.3068
0.9635,-0.0357,0.3066
0.9635,-0.0349,0.3071
0.9628,-0.0342,0.3071
0.9616,-0.0342,0.3073
0.9613,-0.0349,0.3078
0.9611,-0.0344,0.3076
0.9609,-0.0335,0.3068
0.9613,-0.033,0.3056
0.9618,-0.033,0.3061
0.9613,-0.033,0.3064
0.9604,-0.033,0.3066
0.9604,-0.0322,0.3054
0.9606,-0.0318,0.3049
0.9601,-0.0315,0.3054
0.9596,-0.0313,0.3059
0.9599,-0.0313,0.3064
0.9601,-0.0303,0.3078
0.9596,-0.0293,0.3095
0.9589,-0.0296,0.311
0.9594,-0.0293,0.3127
0.9594,-0.0283,0.3142
0.9584,-0.0279,0.3156
0.9582,-0.0269,0.3164
0.9579,-0.0266,0.3174
0.9572,-0.0264,0.3186
0.9569,-0.0271,0.3193
0.9572,-0.0271,0.32
0.9577,-0.0261,0.3205
0.9572,-0.0257,0.3203
0.9572,-0.0254,0.321
0.9577,-0.0252,0.321
0.9589,-0.0249,0.32
0.9587,-0.0247,0.3188
0.9582,-0.0239,0.3176
0.9572,-0.0237,0.3169
0.9562,-0.0247,0.3156
0.9565,-0.0257,0.3139
0.9562,-0.0249,0.3132
0.956,-0.0239,0.3117
0.954,-0.0242,0.3108
0.9523,-0.0249,0.311
0.9518,-0.0252,0.3115
0.9518,-0.0252,0.3105
0.9506,-0.0259,0.3095
0.9494,-0.0261,0.3088
0.9482,-0.0271,0.3083
0.9474,-0.0276,0.3078
0.9472,-0.0274,0.3076
0.9469,-0.0276,0.3081
0.9469,-0.0291,0.3078
0.9477,-0.0298,0.3078
0.9479,-0.0298,0.3081
0.9472,-0.0305,0.3076
0.9474,-0.032,0.3073
0.9482,-0.032,0.3073
0.9482,-0.0322,0.3076
0.9477,-0.0327,0.3078
0.9479,-0.0335,0.3083
0.9491,-0.0332,0.3083
0.9494,-0.033,0.3086
0.9491,-0.0332,0.3093
0.9496,-0.0332,0.3095
0.9501,-0.0325,0.3098
0.9506,-0.0318,0.3098
0.9516,-0.032,0.3095
0.9528,-0.031,0.3093
0.953,-0.0308,0.3095
0.953,-0.0303,0.3103
0.954,-0.0298,0.311
0.9547,-0.0296,0.3117
0.9552,-0.0293,0.3117
0.955,-0.0293,0.3117
0.9547,-0.0293,0.311
0.955,-0.0296,0.31
0.9557,-0.0288,0.31
0.9567,-0.0279,0.3095
0.9579,-0.0266,0.309
0.9587,-0.0264,0.3093
0.9584,-0.0254,0.31
0.9577,-0.0254,0.3098
0.9574,-0.0259,0.3093
0.9572,-0.0249,0.3086
0.9572,-0.0242,0.3088
0.9572,-0.0247,0.3086
0.9565,-0.0247,0.3088
0.956,-0.0247,0.3088
0.9557,-0.0244,0.3078
0.955,-0.0244,0.3076
0.9543,-0.0247,0.3081
0.9535,-0.0244,0.309
0.9543,-0.0247,0.309
0.955,-0.0249,0.3083
0.955,-0.0242,0.3078
0.9557,-0.0239,0.3076
0.9562,-0.0242,0.3078
0.9567,-0.0242,0.3083
0.9567,-0.0247,0.3086
0.9572,-0.0254,0.3078
0.9579,-0.0254,0.3081
0.9584,-0.0254,0.3093
0.9587,-0.0261,0.3105
0.9589,-0.0259,0.3112
0.9591,-0.0264,0.312
0.9584,-0.0271,0.3122
0.9577,-0.0276,0.3112
0.9569,-0.0281,0.3115
0.956,-0.0286,0.3117
0.9552,-0.0283,0.3117
0.9552,-0.0288,0.3115
0.9555,-0.0293,0.3115
0.9552,-0.0291,0.31
0.9555,-0.0288,0.3093
0.9557,-0.0293,0.3088
0.9562,-0.03,0.3076
0.9565,-0.0298,0.3064
0.956,-0.0293,0.3051
0.9557,-0.0298,0.3042
0.9557,-0.0305,0.3034
0.9567,-0.0315,0.302
0.9572,-0.0322,0.3007
0.9577,-0.0322,0.2995
0.9579,-0.0322,0.2998
0.9594,-0.0318,0.3003
0.9606,-0.0315,0.2993
0.9611,-0.0322,0.2988
0.9613,-0.033,0.2976
0.9609,-0.0335,0.2961
0.9604,-0.033,0.2954
0.9609,-0.0325,0.2951
0.9611,-0.0325,0.2949
0.9613,-0.0322,0.2939
0.9611,-0.031,0.2937
0.9606,-0.0308,0.2937
0.9606,-0.031,0.2932
0.9599,-0.031,0.2922
0.9599,-0.0296,0.2919
0.9596,-0.0288,0.2924
0.9587,-0.0286,0.2922
0.9579,-0.0293,0.2922
0.9584,-0.0296,0.2927
0.9579,-0.0288,0.2932
0.9572,-0.0281,0.2934
0.9579,-0.0283,0.2951
0.9574,-0.0291,0.2966
0.9572,-0.03,0.2968
0.9572,-0.03,0.2978
0.9572,-0.0303,0.3003
0.9572,-0.0308,0.3022
0.9562,-0.031,0.3032
0.9557,-0.0313,0.3046
0.9555,-0.0313,0.3056
0.9555,-0.0308,0.3059
0.956,-0.0313,0.3068
0.956,-0.0318,0.3078
0.9545,-0.0325,0.3088
0.9545,-0.0335,0.31
0.9538,-0.034,0.3112
0.9533,-0.034,0.3117
0.9535,-0.0337,0.312
0.953,-0.0342,0.3117
0.9523,-0.0352,0.3115
0.9513,-0.0362,0.312
0.9501,-0.0366,0.313
0.9506,-0.0371,0.3127
0.9511,-0.0369,0.3122
0.9511,-0.0364,0.312
0.9513,-0.0359,0.3117
0.9513,-0.0366,0.3112
0.9516,-0.0374,0.3122
0.9516,-0.0379,0.3127
0.9523,-0.0381,0.3122
0.9523,-0.0376,0.3115
0.9523,-0.0371,0.312
0.9523,-0.0379,0.3125
0.9528,-0.0376,0.3125
0.9535,-0.0374,0.3125
0.9535,-0.0376,0.3122
0.9543,-0.0374,0.3117
0.955,-0.0374,0.312
0.955,-0.0374,0.312
0.9555,-0.0369,0.3122
0.956,-0.0362,0.3125
0.9567,-0.0359,0.3117
0.9562,-0.0362,0.311
0.956,-0.0362,0.311
0.9562,-0.0359,0.3105
0.9572,-0.0354,0.3103
0.9574,-0.0352,0.3098
0.9572,-0.0347,0.3095
0.9577,-0.0349,0.3095
0.9574,-0.0347,0.309
0.9569,-0.0342,0.3088
0.9565,-0.034,0.3088
0.956,-0.0332,0.3088
0.9562,-0.0327,0.3083
0.956,-0.0318,0.3088
0.9552,-0.0315,0.3098
0.955,-0.0313,0.3103
0.9555,-0.0318,0.3108
0.955,-0.0318,0.3105
0.9545,-0.031,0.31
0.954,-0.0313,0.3093
0.9535,-0.0313,0.3093
0.9533,-0.0313,0.3103
0.953,-0.031,0.3115
0.9518,-0.03,0.3117
0.9516,-0.03,0.3125
0.9518,-0.0298,0.313
0.9511,-0.0291,0.3127
0.9508,-0.0283,0.3122
0.9513,-0.0286,0.3127
0.9511,-0.0288,0.3139
0.9508,-0.0286,0.3139
0.9508,-0.0283,0.3132
0.9513,-0.0291,0.313
0.9518,-0.0293,0.3132
0.9521,-0.0293,0.3132
0.9526,-0.0291,0.3132
0.9526,-0.0283,0.313
0.9523,-0.0283,0.3125
0.9523,-0.0283,0.3122
0.9533,-0.0288,0.312
0.9552,-0.0298,0.3115
0.956,-0.0291,0.3098
0.9552,-0.0288,0.3093
0.955,-0.0298,0.31
0.9552,-0.0305,0.3105
0.956,-0.0298,0.3103
0.9555,-0.0293,0.31
0.9555,-0.0291,0.3093
0.9567,-0.0291,0.3081
0.9584,-0.0293,0.3073
0.9584,-0.0293,0.3066
0.9584,-0.0291,0.3064
0.9584,-0.0291,0.3059
0.9579,-0.0293,0.3049
0.9572,-0.0293,0.3046
0.9577,-0.0288,0.3059
0.9589,-0.0276,0.3059
0.9587,-0.0276,0.3054
0.9572,-0.0276,0.3046
0.9572,-0.0276,0.3037
0.9572,-0.0279,0.3039
0.9569,-0.0279,0.3042
0.9565,-0.0274,0.3034
0.9557,-0.0269,0.3025
0.956,-0.0274,0.3029
0.9557,-0.0279,0.3029
0.955,-0.0279,0.3027
0.9547,-0.0276,0.3032
0.9545,-0.0276,0.3029
0.955,-0.0276,0.3027
0.955,-0.0274,0.3029
0.9552,-0.0264,0.3029
0.9547,-0.0266,0.302
0.9543,-0.0269,0.3022
0.955,-0.0266,0.3029
0.9552,-0.0274,0.3032
0.9555,-0.0281,0.3042
0.9547,-0.0288,0.3042
0.9543,-0.0293,0.3042
0.9545,-0.0293,0.3046
0.955,-0.0288,0.3049
0.955,-0.0296,0.3051
0.9545,-0.03,0.3059
0.9547,-0.03,0.3071
0.9557,-0.0305,0.3078
0.9557,-0.0303,0.3078
0.9555,-0.0303,0.3066
0.9557,-0.0305,0.3064
0.956,-0.031,0.3073
0.9562,-0.0308,0.3081
0.9565,-0.0308,0.3078
0.9562,-0.031,0.3086
0.9555,-0.0313,0.3098
0.955,-0.032,0.3103
0.9547,-0.032,0.3103
0.9552,-0.0315,0.3108
0.9555,-0.031,0.3115
0.9557,-0.0308,0.312
0.9552,-0.0313,0.3115
0.9547,-0.0318,0.3112
0.9552,-0.0318,0.3115
0.9552,-0.0313,0.312
0.9547,-0.0308,0.3115
0.9555,-0.0308,0.3122
0.955,-0.0305,0.3125
0.9543,-0.0305,0.3125
0.9543,-0.0305,0.3125
0.953,-0.0305,0.3127
0.9526,-0.03,0.3117
0.9523,-0.03,0.3115
0.9526,-0.03,0.3122
0.9523,-0.0291,0.3132
0.953,-0.0288,0.3132
0.954,-0.0291,0.313
0.954,-0.0288,0.3132
0.9543,-0.0283,0.3139
0.954,-0.0276,0.3139
0.9543,-0.0279,0.3147
0.9552,-0.0288,0.3161
0.956,-0.0283,0.3174
0.9562,-0.0281,0.3166
0.9567,-0.0286,0.3164
0.9569,-0.0293,0.3159
0.9577,-0.0296,0.3154
0.9589,-0.0293,0.3152
0.9589,-0.0296,0.3156
0.9584,-0.0293,0.3161
0.9584,-0.0293,0.3156
0.9574,-0.0298,0.3139
0.9565,-0.0298,0.3137
0.9557,-0.0298,0.313
0.9557,-0.0303,0.3117
0.955,-0.031,0.3103
0.954,-0.0313,0.3088
0.9535,-0.0313,0.3088
0.953,-0.0315,0.3083
0.953,-0.0315,0.3076
0.9533,-0.0313,0.3073
0.9518,-0.0313,0.3061
0.9504,-0.0313,0.3039
0.9491,-0.032,0.3039
0.9486,-0.0322,0.3042
0.9491,-0.032,0.3044
0.9494,-0.0322,0.3039
0.9489,-0.0322,0.3044
0.9489,-0.0318,0.3046
0.9491,-0.032,0.3059
0.9496,-0.0325,0.3066
0.9501,-0.0325,0.3066
0.9499,-0.0325,0.3071
0.9496,-0.0322,0.3086
0.9504,-0.0325,0.3098
0.9513,-0.0332,0.3105
0.9521,-0.0335,0.3103
0.9521,-0.0335,0.3105
0.9526,-0.0332,0.3115
0.9535,-0.0332,0.3125
0.9545,-0.0325,0.3132
0.9557,-0.032,0.3137
0.9567,-0.0325,0.3139
0.9574,-0.033,0.3144
0.9577,-0.0325,0.3147
0.9577,-0.032,0.3147
0.9577,-0.0313,0.3149
0.9579,-0.03,0.3144
0.9584,-0.0303,0.3144
0.9591,-0.03,0.3142
0.9599,-0.0288,0.3127
0.9601,-0.0276,0.3115
0.9601,-0.0269,0.311
0.9599,-0.0274,0.31
0.9599,-0.0279,0.3086
0.9596,-0.0281,0.3078
0.9599,-0.0276,0.3076
0.9596,-0.0281,0.3064
0.9579,-0.0283,0.3054
0.9567,-0.0279,0.3054
0.9569,-0.0276,0.3054
0.9569,-0.0271,0.3042
0.9565,-0.0264,0.3032
0.9552,-0.0276,0.3022
0.9545,-0.0288,0.3032
0.955,-0.0298,0.3044
0.955,-0.0305,0.3046
0.955,-0.0308,0.3054
0.955,-0.0318,0.3059
0.9545,-0.0327,0.3054
0.9535,-0.0335,0.3054
0.9535,-0.0342,0.3056
0.954,-0.0349,0.3061
0.9543,-0.0352,0.3061
0.9547,-0.0354,0.3061
0.955,-0.0352,0.3059
0.9547,-0.0344,0.3049
0.955,-0.0347,0.3042
0.9547,-0.0352,0.3039
0.9543,-0.0354,0.3046
0.954,-0.0347,0.3051
0.9547,-0.0349,0.3046
0.9557,-0.0344,0.3039
0.9555,-0.0335,0.3037
0.9547,-0.0325,0.3039
0.955,-0.0322,0.3042
0.9555,-0.0322,0.3049
0.956,-0.0325,0.3054
0.956,-0.0322,0.3066
0.9557,-0.032,0.3064
0.956,-0.032,0.3059
0.9569,-0.0313,0.3054
0.9569,-0.0305,0.3059
0.9565,-0.0305,0.3059
0.9557,-0.0303,0.3071
0.9557,-0.03,0.3081
0.9552,-0.0303,0.3081
0.9547,-0.031,0.3081
0.9543,-0.0305,0.309
0.9545,-0.03,0.3095
0.9552,-0.0296,0.309
0.9557,-0.0298,0.3088
0.9555,-0.0298,0.3088
0.9552,-0.0298,0.3095
0.9547,-0.0296,0.3103
0.955,-0.0296,0.3108
0.9547,-0.03,0.3105
0.9538,-0.03,0.3108
0.953,-0.0293,0.3115
0.9535,-0.0296,0.311
0.9552,-0.0293,0.3108
0.9562,-0.0288,0.312
0.9567,-0.0288,0.3127
0.9574,-0.0293,0.3132
0.9572,-0.0291,0.3132
0.9574,-0.0296,0.3134
0.9577,-0.03,0.3142
0.9577,-0.0296,0.3144
0.9582,-0.0296,0.3137
0.9587,-0.0303,0.3134
0.9582,-0.0303,0.3149
0.9572,-0.0298,0.3156
0.9577,-0.0298,0.3154
0.9574,-0.0296,0.3149
0.9565,-0.0291,0.3144
0.9562,-0.0296,0.3137
0.9555,-0.03,0.3137
0.9538,-0.0296,0.3132
0.9518,-0.0286,0.3122
0.9506,-0.0274,0.3115
0.9506,-0.0271,0.3105
0.9504,-0.0276,0.3108
0.9496,-0.0281,0.311
0.9494,-0.0281,0.3103
0.9486,-0.0276,0.3093
0.9489,-0.0276,0.3088
0.9489,-0.0276,0.3088
0.9484,-0.0269,0.3081
0.9474,-0.0269,0.3078
0.9472,-0.0274,0.3086
0.9477,-0.0276,0.3081
0.9482,-0.0279,0.3078
0.9482,-0.0283,0.3088
0.9486,-0.0281,0.3093
0.9496,-0.0283,0.3103
0.9501,-0.0279,0.3103
0.9501,-0.0276,0.3108
0.9506,-0.0279,0.3112
0.9513,-0.0288,0.3122
0.9518,-0.0286,0.3115
0.9518,-0.0279,0.3105
0.9516,-0.0276,0.3098
0.9513,-0.0276,0.3088
0.9506,-0.0279,0.3081
0.9504,-0.0281,0.3076
0.9513,-0.0279,0.3061
0.9511,-0.0281,0.3044
0.9511,-0.0276,0.3034
0.9516,-0.0269,0.3042
0.9516,-0.0269,0.3039
0.9518,-0.0266,0.3027
0.9518,-0.0266,0.3015
0.9521,-0.0269,0.3003
0.9528,-0.0271,0.2988
0.9535,-0.0269,0.299
0.9535,-0.0266,0.3
0.9543,-0.0271,0.3003
0.955,-0.0286,0.3003
0.955,-0.0291,0.3003
0.955,-0.0286,0.3007
0.9555,-0.0288,0.3007
0.9565,-0.0303,0.3012
0.9577,-0.0308,0.302
0.9587,-0.0313,0.3027
0.9587,-0.032,0.3029
0.9591,-0.0315,0.3032
0.9604,-0.0313,0.3034
0.9621,-0.0315,0.3032
0.9633,-0.032,0.3034
0.9645,-0.0318,0.3039
0.9653,-0.0313,0.3037
0.9657,-0.0313,0.3027
0.9665,-0.032,0.3012
0.9677,-0.0322,0.301
0.9679,-0.0327,0.3007
0.9679,-0.0325,0.3003
0.9679,-0.0325,0.3003
0.9684,-0.0327,0.2995
0.9687,-0.0327,0.299
0.9687,-0.0325,0.2983
0.9684,-0.0327,0.2973
0.9672,-0.0325,0.2976
0.9662,-0.032,0.2976
0.9662,-0.032,0.2981
0.9667,-0.0325,0.2981
0.9675,-0.0318,0.2983
0.9667,-0.0318,0.2983
0.9645,-0.0318,0.2981
0.9628,-0.0325,0.2981
0.9609,-0.033,0.3
0.9604,-0.0327,0.3017
0.9587,-0.0335,0.302
0.9572,-0.034,0.3029
0.9567,-0.0347,0.3034
0.9555,-0.0342,0.3046
0.9538,-0.033,0.3061
0.953,-0.0332,0.3071
0.9533,-0.0332,0.3073
0.9526,-0.0335,0.3073
0.9518,-0.0335,0.3086
0.9513,-0.034,0.309
0.9511,-0.034,0.3093
0.9501,-0.0342,0.3103
0.9494,-0.0342,0.311
0.9489,-0.0347,0.311
0.9494,-0.0347,0.311
0.9486,-0.0352,0.312
0.9474,-0.0349,0.3122
0.9464,-0.0347,0.3117
0.9464,-0.0352,0.3112
0.9474,-0.0352,0.3125
0.9486,-0.0349,0.3132
0.9491,-0.0352,0.3134
0.9486,-0.0357,0.3139
0.9484,-0.0357,0.3132
0.9482,-0.0354,0.3125
0.9486,-0.0349,0.313
0.9504,-0.0344,0.3132
0.9521,-0.0347,0.313
0.9528,-0.0352,0.3132
0.9528,-0.0347,0.3137
0.9533,-0.0337,0.3134
0.9535,-0.0337,0.3125
0.9535,-0.0332,0.313
0.953,-0.0325,0.313
0.9535,-0.032,0.3132
0.9538,-0.0313,0.3127
0.9547,-0.0308,0.3115
0.9557,-0.0303,0.3105
0.9555,-0.0305,0.3105
0.9557,-0.0305,0.3108
0.9567,-0.0303,0.3108
0.9569,-0.0303,0.3108
0.9572,-0.03,0.3098
0.956,-0.0288,0.3086
0.955,-0.0281,0.3083
0.9552,-0.0286,0.3086
0.9557,-0.0286,0.3083
0.956,-0.0283,0.3073
0.956,-0.0283,0.3066
0.956,-0.0283,0.3066
0.956,-0.0281,0.3068
0.956,-0.0276,0.3068
0.9565,-0.0271,0.3073
0.9565,-0.0276,0.3066
0.956,-0.0276,0.3056
0.956,-0.0283,0.3056
0.9565,-0.0283,0.3056
0.9552,-0.0281,0.3051
0.9545,-0.0279,0.3051
0.9543,-0.0281,0.3054
0.954,-0.0276,0.3059
0.9538,-0.0269,0.3056
0.9547,-0.0269,0.3051
0.955,-0.0274,0.3042
0.9543,-0.0274,0.3042
0.9547,-0.0281,0.3034
0.9552,-0.0283,0.3029
0.9567,-0.0279,0.3034
0.9562,-0.0281,0.3034
0.9552,-0.0279,0.3046
0.9545,-0.0281,0.3049
0.9547,-0.0286,0.3044
0.9555,-0.0283,0.3039
0.9555,-0.0279,0.3042
0.9547,-0.0279,0.3046
0.9538,-0.0281,0.3049
0.9543,-0.0276,0.3046
0.9543,-0.0274,0.3046
0.9538,-0.0271,0.3054
0.9543,-0.0269,0.3066
0.9557,-0.0264,0.3064
0.9565,-0.0271,0.3061
0.9562,-0.0274,0.3071
0.9557,-0.0274,0.3076
0.9557,-0.0276,0.3073
0.9552,-0.0276,0.3068
0.955,-0.0276,0.3066
0.9555,-0.0276,0.3066
0.9557,-0.0281,0.3066
0.9562,-0.0281,0.3073
0.9567,-0.0274,0.3076
0.9574,-0.0274,0.3059
0.9577,-0.0269,0.3056
0.9577,-0.0269,0.3054
0.9577,-0.0274,0.3046
0.9579,-0.0276,0.3039
0.9584,-0.0274,0.3034
0.9579,-0.0266,0.3029
0.9579,-0.0261,0.3029
0.9584,-0.0269,0.3027
0.9577,-0.0279,0.3027
0.9569,-0.0286,0.3029
0.9572,-0.0283,0.3029
0.9574,-0.0281,0.3027
0.9579,-0.0291,0.302
0.9584,-0.0298,0.3015
0.9589,-0.0296,0.3015
0.9594,-0.0293,0.3017
0.9591,-0.0296,0.302
0.9594,-0.0296,0.3012
0.9594,-0.0298,0.3007
0.9594,-0.03,0.301
0.9594,-0.0303,0.3007
0.9594,-0.03,0.3005
0.9591,-0.0303,0.3012
0.9591,-0.031,0.3022
0.9599,-0.0313,0.3022
0.9609,-0.0308,0.3027
0.9613,-0.0305,0.3029
0.9616,-0.0303,0.3029
0.9623,-0.0303,0.3034
0.9628,-0.0313,0.3044
0.9628,-0.0315,0.3046
0.9631,-0.0313,0.3042
0.9635,-0.0315,0.3039
0.9638,-0.0315,0.3039
0.9633,-0.0313,0.3044
0.9631,-0.0308,0.3051
0.9626,-0.0308,0.3056
0.9621,-0.0313,0.3046
0.9621,-0.0318,0.3037
0.9616,-0.0325,0.3042
0.9616,-0.0322,0.3046
0.9609,-0.0325,0.3046
0.9591,-0.0327,0.3037
0.9577,-0.0322,0.3029
0.9562,-0.0322,0.3025
0.9555,-0.0322,0.3025
0.9545,-0.0322,0.3027
0.953,-0.033,0.3037
0.9516,-0.0335,0.3034
0.9501,-0.033,0.3025
0.9496,-0.0325,0.3015
0.9491,-0.032,0.3012
0.9482,-0.032,0.302
0.9477,-0.032,0.3025
0.9472,-0.0318,0.3029
0.9469,-0.032,0.3032
0.9467,-0.0325,0.3042
0.9469,-0.0325,0.3049
0.9464,-0.0327,0.3061
0.9464,-0.033,0.3081
0.9462,-0.0327,0.3088
0.946,-0.0315,0.3095
0.9464,-0.032,0.311
0.9464,-0.0325,0.313
0.9477,-0.033,0.3132
0.9482,-0.034,0.3139
0.9489,-0.0337,0.3152
0.9494,-0.0335,0.3159
0.9504,-0.0349,0.3174
0.9513,-0.0352,0.3181
0.9521,-0.0347,0.3186
0.953,-0.0342,0.3186
0.9543,-0.034,0.3191
0.9552,-0.0344,0.3193
0.9557,-0.0347,0.3191
0.9562,-0.0342,0.32
0.9569,-0.0335,0.3205
0.9579,-0.0332,0.3203
0.9589,-0.0327,0.3196
0.9594,-0.0325,0.3181
0.9601,-0.0318,0.3164
0.9601,-0.0305,0.3147
0.9596,-0.0308,0.3132
0.9589,-0.0305,0.3127
0.9584,-0.0303,0.3125
0.9584,-0.0298,0.3115
0.9594,-0.03,0.3108
0.9591,-0.0303,0.31
0.9582,-0.0303,0.3093
0.9577,-0.0298,0.3086
0.9572,-0.0291,0.3083
0.9567,-0.0291,0.3081
0.9569,-0.0298,0.3083
0.9567,-0.0298,0.3086
0.9567,-0.03,0.3086
0.956,-0.0305,0.3093
0.9545,-0.031,0.3093
0.9545,-0.0322,0.3083
0.9545,-0.0332,0.3083
0.955,-0.0335,0.3081
0.9552,-0.0327,0.3066
0.955,-0.032,0.3068
0.9545,-0.0322,0.3078
0.9545,-0.0332,0.3068
0.9552,-0.0325,0.3059
0.9557,-0.0327,0.3061
0.956,-0.0335,0.3066
0.9562,-0.0332,0.3064
0.9567,-0.033,0.3066
0.9565,-0.0332,0.3061
0.9557,-0.033,0.3059
0.9557,-0.0327,0.3066
0.956,-0.0332,0.3071
0.9562,-0.0327,0.3068
0.9569,-0.033,0.3064
0.9572,-0.033,0.3061
0.9569,-0.0327,0.3068
0.9567,-0.0327,0.3078
0.956,-0.0332,0.3076
0.956,-0.0327,0.3071
0.9565,-0.0318,0.3078
0.9567,-0.031,0.3076
0.9569,-0.0308,0.3066
0.9567,-0.0308,0.3066
0.9557,-0.031,0.3068
0.9547,-0.0313,0.3073
0.954,-0.0315,0.3073
0.9538,-0.0318,0.3071
0.953,-0.0313,0.3068
0.9523,-0.0308,0.3066
0.9521,-0.03,0.3064
0.9521,-0.0296,0.3059
0.9523,-0.0291,0.3049
0.9526,-0.0288,0.3039
0.9526,-0.0286,0.3037
0.9521,-0.0288,0.3034
0.9516,-0.0283,0.3032
0.9513,-0.0281,0.3029
0.9511,-0.0279,0.3022
0.9516,-0.0274,0.3025
0.9535,-0.0276,0.3025
0.9535,-0.0279,0.3029
0.953,-0.0281,0.3032
0.9533,-0.0271,0.3029
0.9535,-0.0266,0.3029
0.9538,-0.0269,0.3034
0.9538,-0.0266,0.3042
0.9543,-0.0266,0.3042
0.9557,-0.0271,0.3039
0.9569,-0.0276,0.3039
0.9572,-0.0271,0.3044
0.9567,-0.0266,0.3044
0.9567,-0.0276,0.3049
0.9572,-0.0286,0.3051
0.9574,-0.0281,0.3051
0.9579,-0.0276,0.3049
0.9579,-0.0276,0.3046
0.9569,-0.0283,0.3042
0.9567,-0.0291,0.3037
0.9572,-0.0296,0.3029
0.9572,-0.0303,0.3022
0.9567,-0.0296,0.3022
0.9569,-0.0291,0.3017
0.9579,-0.0288,0.3003
0.9587,-0.0296,0.3
0.9591,-0.0305,0.3007
0.9594,-0.0305,0.3007
0.9589,-0.0308,0.3003
0.9591,-0.0303,0.3003
0.9596,-0.0298,0.3003
0.9596,-0.0298,0.3007
0.9604,-0.0303,0.3005
0.9601,-0.0308,0.301
0.9596,-0.031,0.301
0.9601,-0.0305,0.3005
0.9601,-0.0305,0.3003
0.9606,-0.031,0.3015
0.9606,-0.0315,0.3022
0.9606,-0.0305,0.3025
0.9596,-0.0298,0.3017
0.9589,-0.0296,0.3015
0.9589,-0.03,0.3012
0.9589,-0.0298,0.3007
0.9582,-0.0293,0.301
0.9572,-0.0291,0.3017
0.956,-0.0281,0.3015
0.9552,-0.0281,0.3007
0.9555,-0.0291,0.3012
0.9555,-0.0296,0.3025
0.9552,-0.0291,0.3022
0.955,-0.0283,0.3015
0.954,-0.0281,0.3025
0.953,-0.0288,0.3032
0.953,-0.0288,0.3039
0.955,-0.0283,0.3046
0.9552,-0.0279,0.3054
0.9545,-0.0279,0.3059
0.954,-0.0279,0.3073
0.9526,-0.0283,0.3083
0.9518,-0.0281,0.3093
0.9528,-0.0281,0.3105
0.953,-0.0293,0.3108
0.9528,-0.0298,0.3108
0.9526,-0.0296,0.3108
0.9526,-0.0296,0.3108
0.9526,-0.0303,0.311
0.9521,-0.0305,0.3117
0.9518,-0.0303,0.3115
0.9516,-0.0305,0.3115
0.9506,-0.031,0.3115
0.9506,-0.0303,0.3117
0.9516,-0.0305,0.3122
0.9516,-0.031,0.3122
0.9513,-0.0308,0.3122
0.9516,-0.0308,0.3127
0.9521,-0.0303,0.3132
0.9521,-0.0305,0.3132
0.953,-0.031,0.3137
0.9533,-0.0322,0.3142
0.9535,-0.0327,0.3149
0.9535,-0.0322,0.3149
0.954,-0.032,0.3149
0.955,-0.033,0.3154
0.9555,-0.0335,0.3159
0.9562,-0.0342,0.3166
0.9567,-0.0347,0.3169
0.9569,-0.0352,0.3174
0.9569,-0.0354,0.3166
0.9579,-0.0357,0.3159
0.9577,-0.0359,0.3159
0.9574,-0.0362,0.3164
0.9572,-0.0357,0.3164
0.9572,-0.0359,0.3159
0.9577,-0.0354,0.3152
0.9582,-0.0354,0.3149
0.9584,-0.0354,0.3144
0.9582,-0.0354,0.3142
0.9582,-0.0352,0.3144
0.9582,-0.0349,0.3134
0.9582,-0.0352,0.3117
0.9587,-0.0359,0.3112
0.9589,-0.0359,0.311
0.9582,-0.0359,0.311
0.9577,-0.0352,0.311
0.9572,-0.0344,0.3117
0.9572,-0.0342,0.3117
0.9579,-0.0337,0.3108
0.9582,-0.0337,0.31
0.9579,-0.0337,0.3098
0.9567,-0.0332,0.3108
0.9555,-0.0327,0.3108
0.9555,-0.0325,0.3103
0.9557,-0.032,0.3103
0.9545,-0.0318,0.3108
0.954,-0.0322,0.311
0.954,-0.0322,0.3115
0.9533,-0.032,0.311
0.9521,-0.0313,0.3105
0.9523,-0.0308,0.3108
0.953,-0.0305,0.31
0.9518,-0.0305,0.3098
0.9508,-0.03,0.3095
0.9506,-0.0298,0.309
0.9504,-0.03,0.3095
0.9499,-0.0305,0.31
0.9491,-0.0298,0.3105
0.9486,-0.0293,0.3105
0.9499,-0.0298,0.3105
0.9496,-0.0308,0.3108
0.9494,-0.0308,0.311
0.9499,-0.0298,0.3108
0.9496,-0.0293,0.3103
0.9491,-0.0296,0.31
0.9494,-0.03,0.31
0.9499,-0.0303,0.3103
0.9506,-0.0303,0.3105
0.9511,-0.0308,0.3095
0.9506,-0.0305,0.3086
0.9504,-0.0303,0.3088
0.9501,-0.0303,0.3098
0.9508,-0.0305,0.3095
0.9518,-0.031,0.3086
0.9526,-0.0305,0.3083
0.9528,-0.031,0.3088
0.953,-0.031,0.3081
0.9538,-0.0305,0.3081
0.9547,-0.0308,0.3078
0.9545,-0.031,0.3073
0.9545,-0.0318,0.3064
0.955,-0.0318,0.3061
0.955,-0.0318,0.3066
0.9557,-0.0313,0.3059
0.9562,-0.0303,0.3051
0.9557,-0.0296,0.3046
0.9565,-0.0298,0.3044
0.9577,-0.0305,0.3049
0.9584,-0.031,0.3051
0.9584,-0.0308,0.3051
0.9582,-0.0308,0.3061
0.9582,-0.0305,0.3064
0.9579,-0.03,0.3066
0.9574,-0.03,0.3066
0.9577,-0.0303,0.3059
0.9577,-0.0303,0.3051
0.9572,-0.0305,0.3059
0.9572,-0.0298,0.3061
0.9567,-0.0296,0.3059
0.9565,-0.03,0.3054
0.9565,-0.0296,0.3059
0.956,-0.0286,0.3064
0.956,-0.0286,0.3059
0.956,-0.0281,0.3054
0.9552,-0.0281,0.3066
0.9547,-0.0288,0.3073
0.9543,-0.0296,0.3073
0.9545,-0.0288,0.3073
0.9547,-0.0286,0.3073
0.9543,-0.0286,0.3081
0.954,-0.0288,0.3083
0.9535,-0.0291,0.3088
0.9535,-0.0283,0.3086
0.954,-0.0276,0.3076
0.9538,-0.0276,0.3071
0.9538,-0.0281,0.3068
0.9543,-0.0286,0.3073
0.9545,-0.0291,0.3081
0.955,-0.0291,0.3081
0.9555,-0.0291,0.3078
0.9552,-0.0293,0.3073
0.9557,-0.0291,0.3068
0.956,-0.0291,0.3073
0.9567,-0.0296,0.3078
0.9572,-0.0298,0.3076
0.9569,-0.0303,0.3081
0.9565,-0.0303,0.3088
0.9557,-0.0308,0.3083
0.9562,-0.0303,0.3078
0.9562,-0.0293,0.3068
0.9552,-0.0288,0.3066
0.954,-0.0291,0.3056
0.9545,-0.0298,0.3054
0.9557,-0.0296,0.3061
0.9555,-0.0291,0.3064
0.956,-0.0286,0.3071
0.9569,-0.0286,0.3073
0.9572,-0.0286,0.3081
0.9567,-0.0283,0.3088
0.9567,-0.0279,0.3098
0.9562,-0.0283,0.3105
0.9562,-0.0288,0.3105
0.9562,-0.0286,0.3108
0.9565,-0.0279,0.3117
0.9567,-0.0279,0.3125
0.9557,-0.0281,0.3127
0.9552,-0.0283,0.313
0.955,-0.0281,0.3122
0.9545,-0.0274,0.3122
0.9538,-0.0274,0.3125
0.9535,-0.0279,0.3117
0.9528,-0.0286,0.3125
0.9528,-0.0291,0.3122
0.953,-0.0296,0.312
0.9528,-0.0291,0.3117
0.9518,-0.0288,0.3108
0.9511,-0.0296,0.31
0.9508,-0.03,0.3093
0.9508,-0.0303,0.3088
0.9508,-0.0298,0.3093
0.9504,-0.0296,0.3098
0.9506,-0.03,0.3098
0.9508,-0.03,0.3103
0.9506,-0.0303,0.3103
0.9501,-0.031,0.3098
0.9508,-0.0318,0.3098
0.9521,-0.032,0.3105
0.9513,-0.032,0.3108
0.9506,-0.0318,0.3103
0.9508,-0.0318,0.31
0.9511,-0.0315,0.31
0.9518,-0.0318,0.3112
0.9535,-0.032,0.311
0.9552,-0.0325,0.3108
0.9552,-0.0327,0.311
0.955,-0.0327,0.3117
0.956,-0.0327,0.3122
0.9565,-0.0325,0.3132
0.9565,-0.033,0.3137
0.9565,-0.033,0.3142
0.9567,-0.0325,0.3137
0.9572,-0.0322,0.3137
0.9569,-0.0313,0.3134
0.9562,-0.0305,0.3132
0.9562,-0.031,0.3127
0.956,-0.03,0.3132
0.9555,-0.0283,0.3137
0.955,-0.0274,0.3122
0.955,-0.0271,0.3112
0.9557,-0.0269,0.3108
0.956,-0.0264,0.3103
0.9547,-0.0257,0.31
0.955,-0.0254,0.3093
0.9555,-0.0252,0.3083
0.9552,-0.0244,0.3068
0.9547,-0.0242,0.3054
0.9545,-0.0247,0.3046
0.9545,-0.0254,0.3044
0.954,-0.0264,0.3039
0.9535,-0.0261,0.3039
0.9535,-0.0257,0.3039
0.9533,-0.0261,0.3039
0.953,-0.0264,0.3042
0.9538,-0.0266,0.3039
0.9547,-0.0276,0.3039
0.9552,-0.0281,0.3039
0.9557,-0.0288,0.3034
0.9557,-0.0298,0.3022
0.9562,-0.0303,0.302
0.9567,-0.0313,0.302
0.9567,-0.0318,0.302
0.9567,-0.032,0.302
0.9569,-0.0325,0.3022
0.9572,-0.0327,0.3017
0.9577,-0.0325,0.301
0.9577,-0.0327,0.301
0.9577,-0.033,0.301
0.9577,-0.033,0.301
0.9577,-0.0322,0.3003
0.9579,-0.0322,0.2995
0.9579,-0.0327,0.2998
0.9577,-0.0327,0.3003
0.9577,-0.0327,0.3
0.9584,-0.0327,0.2998
0.9579,-0.0322,0.3
0.9579,-0.0325,0.2998
0.9582,-0.0325,0.3007
0.9591,-0.0325,0.301
0.9594,-0.0332,0.3007
0.9594,-0.0335,0.3003
0.9594,-0.0332,0.3003
0.9591,-0.0335,0.3012
0.9587,-0.034,0.3025
0.9591,-0.0337,0.3037
0.9599,-0.0337,0.3037
0.9596,-0.034,0.3029
0.9594,-0.0335,0.3042
0.9582,-0.0337,0.3049
0.9567,-0.0337,0.3049
0.9562,-0.0337,0.3046
0.9557,-0.034,0.3039
0.9557,-0.0342,0.3044
0.9552,-0.0337,0.3054
0.9547,-0.0332,0.3059
0.954,-0.033,0.3061
0.9535,-0.0327,0.3059
0.953,-0.0332,0.3059
0.9526,-0.0332,0.3051
0.9528,-0.033,0.3049
0.953,-0.0325,0.3042
0.9521,-0.0332,0.3029
0.9516,-0.0337,0.3029
0.9523,-0.034,0.3037
0.9528,-0.034,0.3032
0.9533,-0.0335,0.3022
0.954,-0.0327,0.3025
0.9535,-0.0325,0.3022
0.954,-0.0318,0.3025
0.9545,-0.0318,0.3027
0.955,-0.0327,0.3032
0.955,-0.0332,0.3044
0.9552,-0.0332,0.3044
0.9545,-0.0332,0.3044
0.955,-0.0332,0.3051
0.956,-0.0327,0.3054
0.956,-0.033,0.3054
0.9557,-0.034,0.3054
0.9567,-0.0344,0.3061
0.9574,-0.0344,0.3064
0.9572,-0.0342,0.3061
0.956,-0.0335,0.3068
0.9552,-0.0335,0.3068
0.9555,-0.0337,0.3066
0.9555,-0.034,0.3066
0.955,-0.0337,0.3076
0.9557,-0.033,0.3078
0.9562,-0.0332,0.3078
0.9557,-0.0344,0.3078
0.9557,-0.0347,0.3076
0.9567,-0.0342,0.3081
0.9579,-0.0342,0.3081
0.9584,-0.0347,0.3073
0.9582,-0.0354,0.3073
0.9584,-0.0354,0.3076
0.9584,-0.0349,0.3073
0.9589,-0.0352,0.3078
0.9587,-0.0347,0.3083
0.9587,-0.0337,0.3076
0.9594,-0.0342,0.3076
0.9594,-0.0344,0.3071
0.9594,-0.0347,0.3059
0.9584,-0.034,0.3051
0.9577,-0.0337,0.3046
0.9574,-0.0332,0.3042
0.9577,-0.0327,0.3037
0.9569,-0.0322,0.3034
0.9562,-0.0318,0.3029
0.9552,-0.0318,0.3025
0.9535,-0.0313,0.3017
0.9526,-0.0308,0.3017
0.9526,-0.0305,0.3022
0.9516,-0.0303,0.3032
0.9504,-0.0303,0.3039
0.9499,-0.031,0.3034
0.9491,-0.031,0.3032
0.9484,-0.031,0.3034
0.9477,-0.031,0.3037
0.9477,-0.0308,0.3037
0.9477,-0.0303,0.3051
0.9477,-0.0303,0.3059
0.9479,-0.0303,0.3066
0.9491,-0.0303,0.3071
0.9494,-0.0308,0.3076
0.9484,-0.0313,0.3081
0.9482,-0.031,0.309
0.9489,-0.0313,0.309
0.9499,-0.0318,0.3095
0.9506,-0.032,0.31
0.9513,-0.032,0.3103
0.9521,-0.032,0.3108
0.9528,-0.0325,0.3117
0.9533,-0.0327,0.3127
0.9538,-0.0332,0.3122
0.9547,-0.0337,0.311
0.956,-0.0352,0.3105
0.9565,-0.0347,0.3088
0.9574,-0.033,0.3081
0.9584,-0.0335,0.3083
0.9594,-0.0347,0.3083
0.9601,-0.0359,0.3086
0.9611,-0.0364,0.3083
0.9628,-0.0374,0.3081
0.9645,-0.0374,0.3071
0.9648,-0.0369,0.3071
0.9645,-0.0371,0.3068
0.9662,-0.0379,0.3059
0.9672,-0.0381,0.3056
0.967,-0.0381,0.3056
0.9665,-0.0384,0.3054
0.9672,-0.0388,0.3054
0.9675,-0.0386,0.3059
0.9675,-0.0384,0.3059
0.9677,-0.0388,0.3054
0.9675,-0.0386,0.3051
0.9665,-0.0384,0.3049
0.9665,-0.0376,0.3046
0.966,-0.0376,0.3049
0.9648,-0.0376,0.3059
0.964,-0.0366,0.3061
0.9633,-0.0359,0.3054
0.9626,-0.0357,0.3051
0.9616,-0.0359,0.3061
0.9609,-0.0362,0.3056
0.9601,-0.0362,0.3051
0.9591,-0.0362,0.3049
0.9582,-0.0359,0.3046
0.9572,-0.0362,0.3044
0.9562,-0.0354,0.3056
0.955,-0.0347,0.3066
0.9543,-0.0342,0.3061
0.9538,-0.0337,0.3056
0.9535,-0.0332,0.3049
0.9523,-0.0325,0.3054
0.9511,-0.0325,0.3064
0.9506,-0.0327,0.3051
0.9504,-0.0325,0.3044
0.9501,-0.032,0.3054
0.9499,-0.0322,0.3059
0.9501,-0.0327,0.3051
0.9499,-0.0327,0.3054
0.9499,-0.0318,0.3059
0.9504,-0.0318,0.3051
0.9501,-0.032,0.3056
0.9501,-0.0325,0.3059
0.9501,-0.0327,0.3051
0.9499,-0.0327,0.3046
0.9504,-0.0327,0.3046
0.9508,-0.0332,0.3044
0.9513,-0.0342,0.3029
0.9504,-0.0347,0.3015
0.9494,-0.0352,0.3007
0.9496,-0.0354,0.3003
0.9501,-0.0362,0.2995
0.9501,-0.0362,0.2983
0.9499,-0.0354,0.2981
0.9506,-0.0362,0.2971
0.9513,-0.0359,0.2961
0.9516,-0.0359,0.2959
0.9523,-0.0369,0.2956
0.953,-0.0379,0.2944
0.954,-0.0374,0.2944
0.9552,-0.0369,0.2944
0.956,-0.0359,0.2937
0.9557,-0.0362,0.2927
0.956,-0.0364,0.2922
0.9572,-0.0366,0.2917
0.9582,-0.0369,0.2915
0.9587,-0.0366,0.2907
0.9591,-0.0362,0.2893
0.9591,-0.0362,0.2878
0.9589,-0.0357,0.2878
0.9584,-0.0352,0.288
0.9591,-0.0349,0.2878
0.9609,-0.0342,0.2873
0.9613,-0.0347,0.2866
0.9609,-0.0352,0.2858
0.9604,-0.0347,0.2863
0.9616,-0.0342,0.2861
0.9628,-0.0335,0.2853
0.9631,-0.0327,0.2844
0.9635,-0.0325,0.2844
0.965,-0.033,0.2844
0.9667,-0.0335,0.2841
0.967,-0.0332,0.2834
0.9682,-0.0332,0.2836
0.9687,-0.0332,0.2846
0.9699,-0.0325,0.2846
0.9714,-0.0315,0.2844
0.9719,-0.0313,0.2853
0.9721,-0.0313,0.2861
0.9719,-0.0318,0.2868
0.9719,-0.0322,0.2878
0.9726,-0.0325,0.2888
0.9731,-0.0322,0.2893
0.9723,-0.0313,0.29
0.9719,-0.0303,0.2915
0.9701,-0.0303,0.2929
0.9684,-0.031,0.2937
0.9675,-0.0325,0.2949
0.9675,-0.0332,0.2966
0.9677,-0.0327,0.2968
0.9672,-0.0322,0.2968
0.9667,-0.0322,0.2983
0.965,-0.0327,0.3005
0.9643,-0.0332,0.302
0.9638,-0.033,0.3027
0.9623,-0.0327,0.3029
0.9604,-0.0337,0.3037
0.9594,-0.0347,0.3054
0.9591,-0.0352,0.3064
0.9574,-0.0357,0.3068
0.9562,-0.0359,0.3071
0.9557,-0.0364,0.3078
0.9562,-0.0371,0.3078
0.9557,-0.0374,0.3086
0.9552,-0.0384,0.3098
0.955,-0.0396,0.3108
0.9547,-0.0391,0.3117
0.9545,-0.0384,0.3127
0.9545,-0.0388,0.3142
0.955,-0.0391,0.3149
0.955,-0.0391,0.3147
0.9567,-0.0396,0.3147
0.9579,-0.0403,0.3156
0.9572,-0.0408,0.3156
0.9567,-0.0406,0.3159
0.9577,-0.0406,0.3161
0.9584,-0.0403,0.3152
0.9579,-0.0406,0.3149
0.9579,-0.0398,0.3149
0.9577,-0.0398,0.3147
0.9574,-0.0393,0.3147
0.9574,-0.0393,0.3142
0.9579,-0.0388,0.3137
0.9582,-0.0381,0.313
0.9572,-0.0384,0.312
0.9565,-0.0391,0.311
0.9552,-0.0388,0.3098
0.9533,-0.0369,0.3061
0.953,-0.0362,0.3046
0.9516,-0.0362,0.3039
0.9504,-0.0352,0.3027
0.9501,-0.0342,0.3017
0.9489,-0.0337,0.3007
0.9482,-0.0337,0.2995
0.9479,-0.0342,0.2983
0.9474,-0.034,0.2973
0.9467,-0.0322,0.2963
0.9452,-0.0322,0.2956
0.9447,-0.0325,0.2951
0.945,-0.0318,0.2941
0.945,-0.0313,0.2937
0.9442,-0.0313,0.2934
0.9442,-0.031,0.2939
0.9445,-0.031,0.2946
0.945,-0.0308,0.2961
0.945,-0.0305,0.2973
0.945,-0.0303,0.2983
0.9457,-0.0305,0.2993
0.9472,-0.0308,0.3
0.9479,-0.0305,0.3017
0.9486,-0.0298,0.3037
0.9499,-0.0291,0.3051
0.9513,-0.0296,0.3064
0.9516,-0.031,0.3086
0.9526,-0.0313,0.31
0.9543,-0.031,0.3103
0.9555,-0.0303,0.3108
0.9565,-0.0298,0.312
0.9567,-0.0296,0.3125
0.9565,-0.0291,0.3117
0.9569,-0.0293,0.3105
0.9577,-0.0298,0.3105
0.9589,-0.0298,0.31
0.9601,-0.0296,0.3095
0.9606,-0.0288,0.3086
0.9604,-0.0291,0.3076
0.9596,-0.0296,0.3061
0.9596,-0.0293,0.3046
0.9606,-0.0296,0.3042
0.9613,-0.0293,0.3032
0.9621,-0.0291,0.3017
0.9623,-0.0291,0.301
0.9623,-0.03,0.301
0.9621,-0.031,0.3005
0.9613,-0.0308,0.2998
0.9613,-0.0305,0.2988
0.9613,-0.0305,0.2988
0.9613,-0.0315,0.2988
0.9611,-0.032,0.2981
0.9613,-0.0322,0.2978
0.9623,-0.0332,0.2978
0.9628,-0.0332,0.2978
0.9628,-0.0335,0.2971
0.9623,-0.0344,0.2968
0.9628,-0.0352,0.2963
0.9633,-0.0357,0.2963
0.9631,-0.0362,0.2966
0.9631,-0.0357,0.2961
0.9626,-0.0364,0.2961
0.9628,-0.0374,0.2968
0.9631,-0.0376,0.2963
0.9635,-0.0376,0.2959
0.9635,-0.0371,0.2961
0.9638,-0.0374,0.2959
0.9643,-0.0374,0.2951
0.9645,-0.0374,0.2944
0.964,-0.0384,0.2939
0.9638,-0.0381,0.2939
0.9635,-0.0371,0.2944
0.9635,-0.0359,0.2939
0.9628,-0.0354,0.2939
0.9621,-0.0349,0.2939
0.9616,-0.0352,0.2929
0.9613,-0.0354,0.2932
0.9613,-0.0354,0.2944
0.9616,-0.0349,0.2946
0.9618,-0.0352,0.2954
0.9606,-0.0347,0.2954
0.9594,-0.0347,0.2954
0.9594,-0.0357,0.2951
0.9594,-0.0362,0.2956
0.9589,-0.0366,0.2971
0.9584,-0.0362,0.2981
0.9572,-0.0354,0.2981
0.9567,-0.0354,0.2988
0.9572,-0.0357,0.3
0.9565,-0.0359,0.3007
0.9557,-0.0362,0.3005
0.9552,-0.0362,0.3003
0.9557,-0.0359,0.3012
0.9562,-0.0362,0.3027
0.9557,-0.0364,0.3034
0.955,-0.0364,0.3044
0.9543,-0.0364,0.3046
0.9538,-0.0369,0.3051
0.9547,-0.0374,0.3066
0.9555,-0.0371,0.3071
0.9552,-0.0371,0.3068
0.9547,-0.0366,0.3071
0.954,-0.0369,0.3086
0.9538,-0.0374,0.3098
0.9547,-0.0376,0.3103
0.9545,-0.0369,0.311
0.954,-0.0369,0.3122
0.953,-0.0376,0.3125
0.9523,-0.0384,0.312
0.9533,-0.0393,0.3117
0.9535,-0.0393,0.3117
0.953,-0.0381,0.3117
0.9533,-0.0381,0.3112
0.9535,-0.0384,0.3103
0.9535,-0.0384,0.3088
0.9538,-0.0386,0.3083
0.9545,-0.0381,0.3086
0.9557,-0.0371,0.3071
0.9567,-0.0369,0.3056
0.9569,-0.0369,0.3049
0.9577,-0.0369,0.3044
0.9579,-0.0369,0.3037
0.9577,-0.0364,0.3032
0.9584,-0.0359,0.3034
0.9596,-0.0366,0.3029
0.9609,-0.0366,0.3017
0.9616,-0.0362,0.3017
0.9628,-0.0362,0.3017
0.9643,-0.0364,0.3017
0.9648,-0.0366,0.3015
0.9653,-0.0369,0.3005
0.9665,-0.0371,0.3003
0.9667,-0.0364,0.3003
0.9657,-0.0359,0.3005
0.965,-0.0354,0.3012
0.9653,-0.0352,0.3007
0.9648,-0.0349,0.3
0.9643,-0.0349,0.2998
0.9631,-0.0344,0.2985
0.9613,-0.034,0.2976
0.9591,-0.034,0.2966
0.9577,-0.033,0.2959
0.9567,-0.0325,0.2959
0.9565,-0.0315,0.2961
0.9562,-0.0305,0.2954
0.9552,-0.0305,0.2949
0.9543,-0.0313,0.2941
0.9533,-0.031,0.2932
0.9523,-0.0305,0.2939
0.9523,-0.0303,0.2954
0.9516,-0.031,0.2963
0.9508,-0.0315,0.2968
0.9504,-0.0305,0.2976
0.9504,-0.03,0.2983
0.9506,-0.0296,0.2998
0.9511,-0.0293,0.3007
0.9506,-0.03,0.3017
0.9501,-0.0303,0.3029
0.9501,-0.0305,0.3042
0.9511,-0.031,0.3049
0.9513,-0.0315,0.3056
0.9516,-0.0313,0.3061
0.9523,-0.0313,0.3068
0.953,-0.0325,0.3071
0.9543,-0.0337,0.3073
0.955,-0.0342,0.3076
0.9552,-0.034,0.3086
0.955,-0.034,0.3086
0.955,-0.0342,0.3083
0.9552,-0.0337,0.3073
0.9562,-0.0335,0.3059
0.9565,-0.0335,0.3049
0.9567,-0.0342,0.3042
0.9574,-0.0349,0.3044
0.9574,-0.0352,0.3039
0.9572,-0.0354,0.3027
0.9574,-0.0344,0.3015
0.9577,-0.034,0.3015
0.9584,-0.0344,0.3015
0.9591,-0.0347,0.3007
0.9594,-0.0342,0.301
0.9594,-0.0342,0.3003
0.9596,-0.0344,0.2993
0.9594,-0.0344,0.2988
0.9587,-0.034,0.2988
0.9594,-0.0335,0.3
0.9596,-0.0337,0.2998
0.9594,-0.0337,0.2988
0.9594,-0.0335,0.2983
0.9594,-0.0332,0.299
0.9594,-0.0335,0.2993
0.9596,-0.0342,0.2995
0.9599,-0.0347,0.3
0.9594,-0.0347,0.3
0.9584,-0.0344,0.2995
0.9579,-0.0342,0.2988
0.9577,-0.0344,0.299
0.9567,-0.0344,0.2993
0.9567,-0.034,0.3
0.9567,-0.0335,0.3003
0.956,-0.0337,0.3003
0.9557,-0.0344,0.3012
0.955,-0.0347,0.3015
0.954,-0.034,0.3015
0.9533,-0.034,0.3022
0.9543,-0.034,0.3032
0.9547,-0.034,0.3037
0.954,-0.0347,0.3046
0.9533,-0.0347,0.3061
0.953,-0.0352,0.3064
0.953,-0.0357,0.3064
0.953,-0.0364,0.3068
0.9528,-0.0371,0.3066
0.9523,-0.0374,0.3076
0.9523,-0.0371,0.3083
0.9523,-0.0366,0.31
0.9521,-0.0371,0.3112
0.9513,-0.0374,0.312
0.9511,-0.0369,0.3122
0.9516,-0.0371,0.3127
0.9528,-0.0384,0.3137
0.953,-0.0384,0.3142
0.953,-0.0379,0.3144
0.9528,-0.0374,0.3144
0.9528,-0.0369,0.3142
0.9533,-0.0374,0.3139
0.9533,-0.0369,0.3147
0.9528,-0.0371,0.3152
0.9528,-0.0374,0.3149
0.9528,-0.0366,0.3149
0.9533,-0.0364,0.3149
0.9528,-0.0362,0.3152
0.9518,-0.0369,0.3154
0.9523,-0.0366,0.3147
0.953,-0.0359,0.3142
0.9526,-0.0362,0.3142
0.9518,-0.0369,0.3144
0.9521,-0.0362,0.3137
0.9528,-0.0357,0.3125
0.9526,-0.0359,0.313
0.953,-0.0359,0.3139
0.9533,-0.0349,0.3149
0.953,-0.0342,0.3156
0.9523,-0.0349,0.3152
0.9523,-0.0357,0.3149
0.9523,-0.0352,0.3142
0.953,-0.0347,0.3137
0.9538,-0.0344,0.3144
0.9533,-0.034,0.3142
0.9533,-0.0332,0.3132
0.9523,-0.0335,0.313
0.9518,-0.0335,0.313
0.9521,-0.0342,0.3139
0.953,-0.034,0.3132
0.9533,-0.0335,0.3122
0.9533,-0.0335,0.3115
0.9538,-0.0337,0.311
0.9543,-0.0335,0.3105
0.9535,-0.034,0.3093
0.9535,-0.0335,0.3078
0.954,-0.0325,0.3073
0.9538,-0.0327,0.3081
0.953,-0.033,0.3078
0.953,-0.0327,0.3081
0.9533,-0.033,0.3086
0.9538,-0.0335,0.3081
0.954,-0.0327,0.3078
0.9535,-0.032,0.3076
0.9528,-0.0322,0.3073
0.9523,-0.032,0.3059
0.9523,-0.0315,0.3056
0.9523,-0.031,0.3061
0.9523,-0.0308,0.3056
0.9518,-0.031,0.3054
0.9513,-0.0308,0.3054
0.9508,-0.0305,0.3056
0.9508,-0.0308,0.3066
0.9508,-0.031,0.3073
0.9513,-0.03,0.3081
0.953,-0.0288,0.3078
0.9543,-0.0283,0.3073
0.9552,-0.0283,0.3066
0.9565,-0.0281,0.3061
0.9565,-0.0281,0.3064
0.9562,-0.0291,0.3068
0.9565,-0.0298,0.3073
0.9565,-0.0308,0.3078
0.9562,-0.0322,0.3088
0.9569,-0.033,0.3095
0.9569,-0.0332,0.3095
0.9572,-0.0337,0.3086
0.9579,-0.0337,0.3071
0.9582,-0.034,0.3059
0.9587,-0.034,0.3054
0.9582,-0.0342,0.3042
0.9579,-0.0335,0.3025
0.9584,-0.0325,0.301
0.9584,-0.0325,0.3005
0.9587,-0.0325,0.3
0.9587,-0.0318,0.2993
0.9587,-0.031,0.2983
0.9587,-0.0315,0.2976
0.9591,-0.0327,0.2978
0.9594,-0.033,0.2978
0.9599,-0.0332,0.2973
0.9599,-0.0322,0.2973
0.9599,-0.032,0.2983
0.9599,-0.0325,0.3
0.9599,-0.0327,0.3012
0.9604,-0.0325,0.3012
0.9613,-0.0315,0.301
0.9623,-0.0313,0.3017
0.9621,-0.0313,0.3022
0.9618,-0.031,0.3029
0.9623,-0.031,0.3044
0.9631,-0.031,0.3056
0.9631,-0.031,0.3068
0.9623,-0.031,0.3081
0.9618,-0.0308,0.3088
0.9613,-0.0305,0.31
0.9613,-0.03,0.3117
0.9618,-0.0296,0.313
0.9618,-0.0291,0.313
0.9621,-0.0283,0.3132
0.9628,-0.0279,0.3142
0.9616,-0.0274,0.3144
0.9606,-0.0281,0.3139
0.9611,-0.0283,0.3132
0.9611,-0.0288,0.3132
0.9604,-0.0293,0.3134
0.9591,-0.0298,0.3132
0.9567,-0.0298,0.3125
0.9562,-0.0291,0.3112
0.956,-0.0291,0.3103
0.9547,-0.03,0.3095
0.9535,-0.031,0.3095
0.953,-0.0308,0.3095
0.9518,-0.0308,0.3095
0.9508,-0.0305,0.3093
0.9499,-0.0318,0.3081
0.9489,-0.0327,0.3078
0.9482,-0.034,0.3081
0.9477,-0.0352,0.3081
0.9467,-0.0359,0.3088
0.9455,-0.0366,0.3088
0.9457,-0.0371,0.3083
0.946,-0.0386,0.3081
0.945,-0.0401,0.3073
0.9447,-0.0406,0.3076
0.946,-0.041,0.3071
0.9472,-0.042,0.3059
0.9474,-0.0425,0.3051
0.9474,-0.0425,0.3051
0.9479,-0.0432,0.3049
0.9494,-0.0437,0.3039
0.9513,-0.0435,0.3022
0.9521,-0.0428,0.3015
0.9526,-0.0428,0.3017
0.9535,-0.0432,0.3022
0.9543,-0.0432,0.3017
0.9547,-0.0428,0.3003
0.955,-0.042,0.2995
0.9562,-0.0413,0.2998
0.9565,-0.0401,0.2995
0.9577,-0.0393,0.3
0.9582,-0.0391,0.3007
0.9577,-0.0384,0.3003
0.9582,-0.0374,0.2998
0.9577,-0.0359,0.3
0.9577,-0.0342,0.3007
0.9584,-0.033,0.3012
0.9584,-0.0318,0.3017
0.9577,-0.0303,0.3015
0.9577,-0.0293,0.3017
0.9574,-0.0288,0.3032
0.9565,-0.0281,0.3046
0.9562,-0.0276,0.3042
0.9565,-0.0269,0.3042
0.956,-0.0264,0.3051
0.955,-0.0254,0.3059
0.954,-0.0249,0.3064
0.9538,-0.0249,0.3061
0.9538,-0.0244,0.3068
0.953,-0.0239,0.3078
0.9518,-0.0237,0.3078
0.9516,-0.0237,0.3073
0.9518,-0.0235,0.3071
0.9508,-0.0239,0.3076
0.9501,-0.0244,0.3076
0.9508,-0.0242,0.3081
0.9511,-0.0244,0.3081
0.9516,-0.0252,0.3081
0.9528,-0.0254,0.309
0.9535,-0.0254,0.309
0.9533,-0.0261,0.3093
0.954,-0.0269,0.3108
0.9555,-0.0276,0.312
0.956,-0.0286,0.3122
0.9567,-0.0298,0.3115
0.9579,-0.03,0.3115
0.9584,-0.0305,0.312
0.9594,-0.0318,0.3127
0.9601,-0.0327,0.313
0.9609,-0.033,0.3125
0.9606,-0.0332,0.313
0.9609,-0.0337,0.3132
0.9609,-0.0337,0.3125
0.9613,-0.0352,0.3127
0.9621,-0.0359,0.3122
0.9613,-0.0359,0.3115
0.9616,-0.0359,0.311
0.9618,-0.0364,0.3108
0.9616,-0.0371,0.3108
0.9606,-0.0376,0.31
0.9599,-0.0376,0.3088
0.9599,-0.0379,0.3081
0.9609,-0.0381,0.3078
0.9613,-0.0381,0.3086
0.9604,-0.0381,0.3081
0.9596,-0.0384,0.3071
0.9594,-0.0384,0.3071
0.9594,-0.0388,0.3076
0.9589,-0.0386,0.3076
0.9589,-0.0374,0.3078
0.9594,-0.0371,0.3086
0.9594,-0.0374,0.309
0.9599,-0.0374,0.3098
0.9591,-0.0376,0.3095
0.9589,-0.0374,0.3088
0.9584,-0.0366,0.3088
0.9567,-0.0366,0.3095
0.9562,-0.0366,0.3103
0.9569,-0.0362,0.3103
0.9572,-0.0354,0.3093
0.9557,-0.0354,0.3081
0.9538,-0.0362,0.3068
0.953,-0.0354,0.3061
0.9528,-0.034,0.3066
0.9521,-0.0337,0.3073
0.9516,-0.0332,0.3066
0.9511,-0.0332,0.3051
0.9501,-0.0327,0.3054
0.9489,-0.0335,0.3054
0.9479,-0.0342,0.3042
0.9482,-0.0344,0.3029
0.9482,-0.034,0.3034
0.9477,-0.034,0.3049
0.9479,-0.0347,0.3059
0.9486,-0.0349,0.3056
0.9489,-0.0344,0.3044
0.9486,-0.0347,0.3039
0.9486,-0.0364,0.3046
0.9484,-0.0366,0.3054
0.9491,-0.0371,0.3059
0.9508,-0.0384,0.3061
0.9516,-0.0386,0.3068
0.9521,-0.0386,0.3076
0.9528,-0.0384,0.3066
0.954,-0.0386,0.3056
0.954,-0.0393,0.3061
0.9538,-0.0393,0.3068
0.9543,-0.0396,0.3071
0.955,-0.0396,0.3068
0.956,-0.0396,0.3071
0.9572,-0.0398,0.3078
0.9577,-0.0398,0.3078
0.9582,-0.0401,0.3081
0.9577,-0.0398,0.3081
0.9579,-0.0391,0.3081
0.9577,-0.0386,0.3083
0.9577,-0.0384,0.3088
0.9582,-0.0381,0.31
0.9582,-0.0376,0.3098
0.9577,-0.0376,0.3098
0.9582,-0.0379,0.31
0.9587,-0.0369,0.31
0.9582,-0.0354,0.3108
0.9579,-0.0349,0.311
0.9574,-0.0349,0.3105
0.9569,-0.0352,0.31
0.956,-0.0349,0.3103
0.9565,-0.034,0.3108
0.9572,-0.0344,0.3108
0.9557,-0.0342,0.3108
0.9545,-0.0332,0.311
0.9552,-0.0332,0.3108
0.9555,-0.0325,0.3112
0.9557,-0.0313,0.3117
0.9547,-0.0305,0.3115
0.9538,-0.0308,0.3112
0.953,-0.0308,0.311
0.953,-0.031,0.3103
0.9533,-0.0313,0.3095
0.9538,-0.0313,0.3083
0.9535,-0.0318,0.3078
0.9528,-0.0318,0.3083
0.9523,-0.0305,0.3086
0.953,-0.0303,0.3088
0.9533,-0.0308,0.3086
0.953,-0.031,0.3086
0.9533,-0.0308,0.3083
0.9533,-0.0303,0.3081
0.9528,-0.0305,0.3081
0.9528,-0.031,0.3083
0.9535,-0.031,0.3083
0.954,-0.0313,0.3081
0.9547,-0.0308,0.3081
0.9552,-0.03,0.3078
0.9555,-0.0305,0.3086
0.956,-0.0308,0.3088
0.956,-0.031,0.3086
0.956,-0.0313,0.3081
0.9557,-0.0318,0.3081
0.9562,-0.0318,0.309
0.9565,-0.0315,0.309
0.9569,-0.0313,0.3093
0.9572,-0.0315,0.3095
0.9567,-0.0313,0.31
0.9569,-0.031,0.31
0.9565,-0.0303,0.3095
0.9557,-0.0303,0.3095
0.955,-0.0305,0.3095
0.9552,-0.031,0.309
0.9552,-0.0318,0.3095
0.9555,-0.0313,0.3093
0.955,-0.0308,0.3083
0.9545,-0.0305,0.3081
0.956,-0.0308,0.3076
0.956,-0.0308,0.3078
0.9547,-0.031,0.3081
0.9545,-0.031,0.3081
0.9543,-0.0303,0.3076
0.954,-0.0293,0.3071
0.9535,-0.0288,0.3071
0.9533,-0.0293,0.3068
0.954,-0.0296,0.3076
0.953,-0.0291,0.3076
0.9526,-0.0291,0.3068
0.9523,-0.0288,0.3066
0.9518,-0.0283,0.3061
0.9523,-0.0283,0.3054
0.9526,-0.0288,0.3044
0.9528,-0.0291,0.3034
0.9526,-0.0291,0.3029
0.9523,-0.0288,0.3032
0.9521,-0.0293,0.3027
0.9521,-0.0296,0.302
0.953,-0.0293,0.3007
0.9533,-0.0293,0.3007
0.954,-0.0296,0.3015
0.9545,-0.0293,0.302
0.954,-0.0293,0.3017
0.9543,-0.0293,0.3012
0.9557,-0.0288,0.3015
0.9565,-0.0283,0.3017
0.9572,-0.0286,0.3025
0.9579,-0.0291,0.3034
0.9589,-0.0291,0.3044
0.9604,-0.0291,0.3044
0.9609,-0.0296,0.3039
0.9613,-0.0298,0.3044
0.9623,-0.0305,0.3044
0.9635,-0.0305,0.3056
0.964,-0.0305,0.3054
0.9635,-0.0305,0.3051
0.9631,-0.031,0.3051
0.9633,-0.031,0.3049
0.9635,-0.0313,0.3054
0.9633,-0.032,0.3059
0.9635,-0.0327,0.3061
0.9628,-0.033,0.3054
0.9613,-0.033,0.3049
0.9601,-0.034,0.3046
0.9599,-0.0344,0.3034
0.9594,-0.0342,0.3027
0.9577,-0.0347,0.3017
0.9569,-0.0349,0.3017
0.9562,-0.0352,0.3012
0.955,-0.0354,0.3005
0.9538,-0.0357,0.3005
0.9533,-0.0349,0.3005
0.953,-0.0344,0.3015
0.9528,-0.0349,0.3017
0.9516,-0.0359,0.3012
0.9516,-0.0362,0.3022
0.9508,-0.0364,0.3029
0.9499,-0.0366,0.3042
0.9494,-0.0364,0.3046
0.9496,-0.0366,0.3051
0.9501,-0.0374,0.3059
0.9506,-0.0374,0.3076
0.9508,-0.0374,0.3086
0.9501,-0.0371,0.3103
0.9504,-0.0371,0.3125
0.9511,-0.0376,0.3144
0.9523,-0.0376,0.3159
0.9523,-0.0369,0.3174
0.9528,-0.0362,0.3188
0.953,-0.0362,0.3198
0.9535,-0.0364,0.32
0.9543,-0.0359,0.3208
0.9543,-0.0352,0.322
0.955,-0.0352,0.3225
0.9552,-0.0349,0.3222
0.9562,-0.0352,0.3218
0.9569,-0.0347,0.321
0.9574,-0.034,0.3196
0.9574,-0.0337,0.3178
0.9572,-0.0335,0.3171
0.9574,-0.0335,0.3166
0.9574,-0.0335,0.3156
0.9577,-0.0322,0.3147
0.9574,-0.0322,0.3137
0.9567,-0.0327,0.3134
0.9562,-0.0337,0.3125
0.9555,-0.0349,0.312
0.9555,-0.0347,0.3122
0.9557,-0.0342,0.3117
0.9552,-0.034,0.3122
0.9545,-0.0344,0.3134
0.954,-0.0354,0.3132
0.9538,-0.0371,0.3122
0.9538,-0.0371,0.312
0.9535,-0.0369,0.3122
0.9521,-0.0371,0.3125
0.9518,-0.0374,0.3117
0.9523,-0.0381,0.3108
0.9528,-0.0384,0.3103
0.9526,-0.0381,0.3103
0.9513,-0.0381,0.31
0.9513,-0.0388,0.31
0.9516,-0.0391,0.31
0.9526,-0.0388,0.3105
0.9535,-0.0396,0.3095
0.9533,-0.0396,0.3083
0.9538,-0.0393,0.3086
0.9547,-0.0384,0.309
0.9547,-0.0381,0.3086
0.9545,-0.0376,0.3078
0.9552,-0.0369,0.3073
0.956,-0.0357,0.3078
0.9562,-0.0349,0.3081
0.9565,-0.0342,0.3081
0.9565,-0.0335,0.3076
0.9557,-0.0327,0.3066
0.956,-0.0325,0.3064
0.9562,-0.0315,0.3059
0.9569,-0.031,0.3061
0.9569,-0.0305,0.3061
0.9567,-0.0303,0.3066
0.9565,-0.03,0.3061
0.956,-0.0308,0.3056
0.9557,-0.031,0.3046
0.9555,-0.03,0.3042
0.956,-0.0291,0.3037
0.956,-0.0288,0.3039
0.9552,-0.0291,0.3049
0.9545,-0.0291,0.3056
0.9545,-0.0288,0.3059
0.9545,-0.0288,0.3051
0.954,-0.0291,0.3054
0.9538,-0.0283,0.3054
0.9545,-0.0291,0.3046
0.9545,-0.0293,0.3034
0.9543,-0.0296,0.3034
0.9545,-0.03,0.3039
0.9547,-0.03,0.3044
0.9543,-0.0308,0.3051
0.9535,-0.0318,0.3049
0.9538,-0.0313,0.3051
0.9545,-0.031,0.3056
0.9547,-0.0305,0.3059
0.9543,-0.031,0.3059
0.955,-0.032,0.3059
0.9557,-0.0322,0.3068
0.9562,-0.0325,0.3066
0.9565,-0.033,0.3068
0.956,-0.0327,0.3071
0.9562,-0.0322,0.3071
0.9567,-0.0327,0.3064
0.9572,-0.0332,0.3071
0.9572,-0.0322,0.3078
0.9567,-0.0318,0.3071
0.9567,-0.0322,0.3061
0.9579,-0.0322,0.3059
0.9577,-0.0325,0.3061
0.9565,-0.0325,0.3059
0.9565,-0.0325,0.3056
0.9562,-0.0322,0.3054
0.9567,-0.0322,0.3051
0.9584,-0.0332,0.3046
0.9589,-0.0342,0.3044
0.9577,-0.0337,0.3029
0.9567,-0.0335,0.3022
0.9562,-0.0332,0.3025
0.956,-0.0327,0.3029
0.9567,-0.0327,0.3037
0.9572,-0.033,0.3037
0.9574,-0.0327,0.3037
0.9577,-0.033,0.3037
0.9577,-0.0332,0.3049
0.9579,-0.0335,0.3056
0.9587,-0.0342,0.3054
0.9589,-0.0342,0.3059
0.9584,-0.0342,0.3066
0.9582,-0.033,0.3068
0.9589,-0.0325,0.3073
0.9594,-0.0327,0.3073
0.9591,-0.0327,0.3073
0.9589,-0.0327,0.3073
0.9577,-0.0332,0.3071
0.9572,-0.0325,0.3056
0.9569,-0.032,0.3049
0.9567,-0.0318,0.3054
0.9552,-0.0315,0.3059
0.953,-0.0325,0.3049
0.9533,-0.032,0.3039
0.953,-0.0315,0.3034
0.9523,-0.032,0.3029
0.9508,-0.0322,0.3025
0.9504,-0.0322,0.3034
0.9508,-0.0322,0.3037
0.9511,-0.0325,0.3037
0.9508,-0.0327,0.3042
0.9504,-0.0325,0.3044
0.9501,-0.032,0.3046
0.9501,-0.0322,0.3049
0.9501,-0.032,0.3051
0.9501,-0.032,0.3056
0.9499,-0.0335,0.3061
0.9501,-0.0342,0.3056
0.9506,-0.034,0.3064
0.9504,-0.034,0.3071
0.9506,-0.0344,0.3076
0.9511,-0.0352,0.3083
0.9513,-0.0352,0.3083
0.9523,-0.0347,0.3081
0.953,-0.0344,0.3076
0.9523,-0.0347,0.3073
0.9521,-0.0347,0.3071
0.9528,-0.0347,0.3068
0.9528,-0.0342,0.3061
0.9533,-0.0342,0.3061
0.9543,-0.0352,0.3064
0.9545,-0.0359,0.3066
0.9545,-0.0354,0.3064
0.9552,-0.0344,0.3059
0.9565,-0.034,0.3051
0.9572,-0.0342,0.3056
0.9572,-0.0342,0.3059
0.9572,-0.0344,0.3056
0.9579,-0.0347,0.3054
0.9587,-0.034,0.3051
0.9589,-0.0342,0.3054
0.9589,-0.0344,0.3054
0.9589,-0.0342,0.3059
0.9587,-0.0332,0.3051
0.9594,-0.0322,0.3037
0.9596,-0.0332,0.3039
0.9594,-0.0344,0.3046
0.9591,-0.0344,0.3044
0.9604,-0.0342,0.3039
0.9601,-0.0335,0.3037
0.9594,-0.0335,0.3042
0.9596,-0.034,0.3044
0.9596,-0.0342,0.3046
0.9591,-0.0344,0.3042
0.9587,-0.034,0.3032
0.9582,-0.0337,0.3027
0.9587,-0.0344,0.3022
0.9589,-0.0347,0.3025
0.9591,-0.0344,0.3027
0.9589,-0.034,0.3025
0.9591,-0.0347,0.3025
0.9591,-0.0354,0.3032
0.9587,-0.0362,0.3042
0.9577,-0.0364,0.3046
0.9572,-0.0362,0.3046
0.9579,-0.0354,0.3044
0.9582,-0.0352,0.3044
0.9587,-0.0354,0.3044
0.9582,-0.0362,0.3054
0.9579,-0.0369,0.3068
0.9579,-0.0374,0.3071
0.9584,-0.0366,0.3073
0.9584,-0.0354,0.3076
0.9577,-0.0347,0.3078
0.9577,-0.0349,0.3081
0.9574,-0.0359,0.3078
0.9572,-0.0359,0.3086
0.9582,-0.0364,0.3093
0.9587,-0.0366,0.3095
0.9582,-0.0364,0.3103
0.9582,-0.0362,0.3108
0.9589,-0.0369,0.311
0.9587,-0.0374,0.3115
0.9579,-0.0369,0.3117
0.9577,-0.0362,0.3117
0.9579,-0.0359,0.3122
0.9579,-0.0362,0.3125
0.9579,-0.0366,0.313
0.9567,-0.0371,0.313
0.956,-0.0366,0.3122
0.9557,-0.0364,0.3125
0.9547,-0.0366,0.3127
0.955,-0.0362,0.3127
0.955,-0.0364,0.3122
0.955,-0.0366,0.312
0.9547,-0.0362,0.312
0.9547,-0.0362,0.312
0.9535,-0.0359,0.3115
0.9535,-0.0359,0.3115
0.9543,-0.0362,0.3117
0.954,-0.0364,0.3115
0.953,-0.0359,0.311
0.9523,-0.0354,0.3108
0.9523,-0.0349,0.3108
0.9523,-0.0344,0.31
0.9518,-0.0354,0.3098
0.9513,-0.0359,0.3098
0.9516,-0.0362,0.3093
0.9516,-0.0364,0.3086
0.9516,-0.0362,0.3083
0.9508,-0.0352,0.3086
0.9506,-0.0347,0.3083
0.9501,-0.0349,0.3086
0.9499,-0.0354,0.3078
0.9501,-0.0352,0.3078
0.9501,-0.0344,0.3073
0.9508,-0.0347,0.3083
0.9513,-0.0349,0.3103
0.9521,-0.034,0.311
0.9528,-0.0335,0.3122
0.953,-0.0335,0.312
0.9535,-0.034,0.3115
0.9538,-0.034,0.3122
0.9543,-0.0335,0.313
0.955,-0.0337,0.3132
0.9552,-0.0335,0.3144
0.9557,-0.0335,0.3149
0.9569,-0.0337,0.3147
0.9577,-0.033,0.3139
0.9584,-0.0327,0.3139
0.9589,-0.033,0.3137
0.9591,-0.0332,0.3132
0.9594,-0.0332,0.3125
0.9589,-0.0322,0.312
0.9587,-0.0325,0.312
0.9579,-0.033,0.3117
0.9567,-0.033,0.3115
0.956,-0.0322,0.3108
0.9562,-0.0318,0.3093
0.9555,-0.032,0.3081
0.9543,-0.0318,0.3066
0.9543,-0.031,0.3049
0.9538,-0.0315,0.3039
0.9528,-0.0315,0.3032
0.9521,-0.031,0.3025
0.9526,-0.0303,0.3017
0.9513,-0.0298,0.3012
0.9506,-0.0291,0.3007
0.9504,-0.0283,0.2995
0.9501,-0.0283,0.2995
0.9504,-0.0291,0.3003
0.9496,-0.03,0.3015
0.9491,-0.0305,0.3022
0.9489,-0.0305,0.3025
0.9491,-0.0296,0.3032
0.9494,-0.0298,0.3051
0.9489,-0.0303,0.3059
0.9496,-0.0298,0.3071
0.9513,-0.0296,0.309
0.9523,-0.0296,0.3098
0.9526,-0.0296,0.31
0.9533,-0.0303,0.311
0.9545,-0.0308,0.3122
0.9552,-0.0305,0.3137
0.956,-0.03,0.3142
0.9577,-0.03,0.3137
0.9584,-0.0303,0.3132
0.9589,-0.0298,0.3134
0.9599,-0.0296,0.3142
0.9606,-0.0298,0.3137
0.9613,-0.0296,0.312
0.9623,-0.0293,0.3103
0.9626,-0.0291,0.309
0.9628,-0.0288,0.3081
0.9631,-0.0286,0.3073
0.9628,-0.0291,0.3066
0.9628,-0.03,0.3061
0.9628,-0.031,0.3054
0.9633,-0.0313,0.3046
0.9633,-0.031,0.3032
0.9616,-0.0313,0.3029
0.9609,-0.032,0.3025
0.9609,-0.0318,0.302
0.9611,-0.0322,0.3012
0.9601,-0.0332,0.301
0.9591,-0.034,0.301
0.9582,-0.0349,0.3003
0.9579,-0.0359,0.3003
0.9577,-0.0359,0.301
0.9577,-0.0364,0.3025
0.9565,-0.0374,0.3027
0.956,-0.0379,0.3027
0.9557,-0.0376,0.3032
0.9547,-0.0388,0.3032
0.9543,-0.0396,0.3027
0.9543,-0.0388,0.302
0.954,-0.0388,0.3015
0.9538,-0.0401,0.3017
0.9533,-0.0401,0.3017
0.954,-0.0396,0.302
0.9545,-0.0393,0.3012
0.9552,-0.0396,0.3015
0.955,-0.0391,0.3015
0.9552,-0.0386,0.3017
0.9557,-0.0381,0.3017
0.9555,-0.0381,0.301
0.9557,-0.0374,0.3005
0.9565,-0.0364,0.3
0.9565,-0.0362,0.3
0.9567,-0.0369,0.301
0.9562,-0.0379,0.3022
0.9562,-0.0364,0.3029
0.9557,-0.0354,0.3027
0.9557,-0.0354,0.3029
0.9557,-0.0352,0.3032
0.9557,-0.0349,0.3039
0.9547,-0.0354,0.3042
0.9545,-0.0359,0.3046
0.9535,-0.0354,0.3059
0.953,-0.0352,0.3068
0.9523,-0.0344,0.3068
0.9518,-0.0342,0.3071
0.9518,-0.034,0.3068
0.9516,-0.0344,0.3073
0.9511,-0.0352,0.3078
0.9513,-0.0354,0.3073
0.9508,-0.0354,0.3078
0.9511,-0.0349,0.3081
0.9508,-0.0354,0.3083
0.9504,-0.0354,0.3083
0.9504,-0.0354,0.3083
0.9508,-0.0357,0.3088
0.9513,-0.0354,0.3088
0.9521,-0.0357,0.3093
0.9516,-0.0354,0.3093
0.9511,-0.0352,0.3098
0.9511,-0.0354,0.31
0.9516,-0.0359,0.3108
0.9523,-0.0359,0.312
0.9528,-0.0357,0.3115
0.953,-0.0357,0.311
0.953,-0.0359,0.3115
0.954,-0.0352,0.3122
0.9562,-0.0357,0.3125
0.9565,-0.0357,0.3117
0.9562,-0.0357,0.3122
0.956,-0.0359,0.3112
0.9567,-0.0352,0.3105
0.9572,-0.0349,0.3105
0.9569,-0.0347,0.3108
0.9569,-0.0344,0.31
0.9567,-0.0352,0.309
0.9572,-0.0362,0.309
0.9584,-0.0366,0.3086
0.9587,-0.0362,0.3078
0.9582,-0.0359,0.3068
0.9587,-0.0359,0.3076
0.9582,-0.0359,0.3076
0.9572,-0.0357,0.3073
0.9572,-0.0352,0.3071
0.9582,-0.0349,0.3066
0.9587,-0.0352,0.3068
0.9589,-0.0352,0.3066
0.9594,-0.0354,0.3068
0.9596,-0.0347,0.3076
0.9601,-0.034,0.3081
0.9601,-0.0337,0.3088
0.9594,-0.0332,0.3088
0.9591,-0.0325,0.3078
0.9601,-0.0327,0.3066
0.9611,-0.0332,0.3073
0.9604,-0.0332,0.3083
0.9591,-0.0318,0.3081
0.9594,-0.0303,0.3076
0.9599,-0.0308,0.3071
0.9599,-0.031,0.3061
0.9587,-0.0308,0.3059
0.9579,-0.0303,0.3051
0.9572,-0.0296,0.3049
0.9562,-0.0291,0.3051
0.955,-0.0288,0.3051
0.9547,-0.0276,0.3056
0.9543,-0.0274,0.3054
0.9533,-0.0276,0.3049
0.953,-0.0281,0.3046
0.9535,-0.0276,0.3049
0.953,-0.0271,0.3056
0.9523,-0.0276,0.3061
0.9521,-0.0279,0.3064
0.9521,-0.0286,0.3068
0.9523,-0.0288,0.3071
0.9521,-0.0283,0.3073
0.9523,-0.0286,0.3076
0.9518,-0.0298,0.3078
0.9506,-0.0305,0.3088
0.9506,-0.03,0.3093
0.9513,-0.0305,0.309
0.9518,-0.031,0.3081
0.9518,-0.0313,0.3073
0.9523,-0.032,0.3076
0.9528,-0.0327,0.3083
0.9535,-0.0335,0.3078
0.9543,-0.0342,0.3068
0.9545,-0.0342,0.3056
0.9557,-0.0342,0.3054
0.9567,-0.034,0.3054
0.9567,-0.0337,0.3056
0.9567,-0.0342,0.3059
0.9569,-0.0347,0.3056
0.9569,-0.0344,0.3056
0.9574,-0.034,0.3049
0.9579,-0.034,0.3044
0.9584,-0.0337,0.3051
0.9594,-0.0344,0.3051
0.9596,-0.0354,0.3054
0.9599,-0.0347,0.3054
0.9591,-0.0335,0.3056
0.9587,-0.034,0.3054
0.9589,-0.0342,0.3056
0.9599,-0.0342,0.3059
0.9601,-0.0342,0.3056
0.9599,-0.0342,0.3044
0.9594,-0.0347,0.3044
0.9589,-0.0349,0.3051
0.9591,-0.0342,0.3051
0.9589,-0.0342,0.3046
0.9579,-0.0342,0.3044
0.9582,-0.034,0.3037
0.9572,-0.0342,0.3032
0.9567,-0.0344,0.3032
0.9562,-0.0342,0.3037
0.9567,-0.0344,0.3034
0.9572,-0.0347,0.3032
0.9565,-0.0352,0.3034
0.9557,-0.0352,0.3037
0.9552,-0.0349,0.3037
0.955,-0.0347,0.3037
0.9547,-0.0344,0.3037
0.9538,-0.0344,0.3046
0.9543,-0.0344,0.3054
0.955,-0.0342,0.3054
0.9547,-0.0342,0.3059
0.955,-0.0347,0.3061
0.9547,-0.0354,0.3064
0.9535,-0.0359,0.3066
0.9528,-0.0352,0.3071
0.9535,-0.0352,0.3081
0.9545,-0.0354,0.3086
0.9545,-0.0362,0.3088
0.9535,-0.0366,0.3095
0.953,-0.0369,0.3108
0.9533,-0.0366,0.3115
0.954,-0.0359,0.3117
0.9545,-0.0362,0.3112
0.9545,-0.0366,0.3115
0.955,-0.0364,0.312
0.9545,-0.0364,0.312
0.9552,-0.0369,0.3117
0.9557,-0.0366,0.3122
0.9555,-0.0366,0.3127
0.956,-0.0369,0.3125
0.956,-0.0374,0.312
0.955,-0.0374,0.3117
0.9557,-0.0366,0.3112
0.956,-0.0364,0.3105
0.9567,-0.0364,0.31
0.9572,-0.0362,0.31
0.9572,-0.0364,0.3103
0.9562,-0.0366,0.3098
0.956,-0.0359,0.309
0.9567,-0.0359,0.3088
0.9577,-0.0364,0.3081
0.9577,-0.0362,0.3078
0.9569,-0.0354,0.3073
0.9567,-0.0357,0.3066
0.9567,-0.0354,0.3061
0.9567,-0.0349,0.3054
0.9572,-0.0347,0.3044
0.9579,-0.0354,0.3039
0.9579,-0.0349,0.3044
0.9577,-0.0347,0.3056
0.9579,-0.0359,0.3051
0.9589,-0.0366,0.3042
0.9591,-0.0362,0.3037
0.9579,-0.0354,0.3037
0.9572,-0.0344,0.3037
0.9569,-0.0342,0.3037
0.9569,-0.0347,0.3039
0.9567,-0.0347,0.3039
0.9572,-0.0342,0.3044
0.9579,-0.0347,0.3044
0.9572,-0.0344,0.3037
0.956,-0.0347,0.3037
0.956,-0.0359,0.3044
0.9565,-0.0369,0.3044
0.956,-0.0364,0.3029
0.956,-0.0354,0.3029
0.9562,-0.0354,0.3032
0.9555,-0.0362,0.3032
0.9547,-0.0364,0.3037
0.9543,-0.0359,0.3039
0.954,-0.0362,0.3044
0.9543,-0.0364,0.3046
0.9545,-0.0364,0.3051
0.9543,-0.0357,0.3051
0.9545,-0.0352,0.3059
0.9552,-0.0354,0.3071
0.955,-0.0352,0.3073
0.955,-0.0344,0.3078
0.9552,-0.0342,0.3081
0.955,-0.034,0.3086
0.9555,-0.0354,0.3093
0.9567,-0.0359,0.3095
0.9577,-0.0352,0.31
0.9582,-0.0342,0.31
0.9587,-0.0342,0.3108
0.9579,-0.0344,0.311
0.9577,-0.0344,0.31
0.9582,-0.0349,0.3093
0.9589,-0.0347,0.3086
0.9591,-0.0342,0.3083
0.9591,-0.0344,0.3081
0.9579,-0.0344,0.3078
0.9567,-0.034,0.3068
0.9562,-0.0337,0.3059
0.9557,-0.034,0.3044
0.9552,-0.0344,0.3022
0.9545,-0.0342,0.3015
0.9543,-0.0332,0.3012
0.9543,-0.0332,0.3015
0.9538,-0.033,0.3003
0.953,-0.033,0.2995
0.9521,-0.033,0.299
0.9508,-0.0325,0.2981
0.9501,-0.0325,0.2976
0.9504,-0.0327,0.2976
0.9501,-0.0322,0.2985
0.9508,-0.0318,0.2993
0.9511,-0.031,0.2993
0.9506,-0.031,0.3
0.9504,-0.031,0.3012
0.9504,-0.031,0.3025
0.9516,-0.0305,0.3032
0.9528,-0.0303,0.3037
0.9528,-0.03,0.3054
0.953,-0.03,0.3071
0.9535,-0.0305,0.3086
0.9538,-0.0308,0.31
0.9538,-0.0298,0.3115
0.9545,-0.0286,0.3125
0.9552,-0.0283,0.313
0.9565,-0.0283,0.3137
0.9574,-0.0283,0.3139
0.9584,-0.0279,0.3139
0.9591,-0.0281,0.3132
0.9591,-0.0283,0.3134
0.9599,-0.0283,0.313
0.9611,-0.0276,0.3122
0.9611,-0.0274,0.3112
0.9613,-0.0266,0.3093
0.9621,-0.0264,0.3088
0.9628,-0.0269,0.3086
0.9638,-0.0271,0.3078
0.9633,-0.0271,0.3073
0.9626,-0.0274,0.3068
0.9623,-0.0276,0.3054
0.9626,-0.0283,0.3046
0.9628,-0.0291,0.3032
0.9621,-0.0291,0.3025
0.9618,-0.0296,0.302
0.9613,-0.0305,0.3017
0.9604,-0.0315,0.3017
0.9589,-0.0325,0.3015
0.9582,-0.0327,0.3012
0.9579,-0.0332,0.301
0.9584,-0.0342,0.301
0.9579,-0.0354,0.3017
0.9572,-0.0366,0.3017
0.9562,-0.0374,0.3017
0.9555,-0.0376,0.3022
0.956,-0.0386,0.3025
0.9557,-0.0391,0.3022
0.9555,-0.0393,0.302
0.956,-0.0398,0.3025
0.9565,-0.0396,0.3027
0.9557,-0.0388,0.3032
0.955,-0.0388,0.3027
0.9547,-0.0388,0.3029
0.9547,-0.0391,0.3032
0.9545,-0.0386,0.3044
0.9547,-0.0376,0.3042
0.955,-0.0374,0.3039
0.9557,-0.0374,0.3039
0.9557,-0.0371,0.3037
0.9562,-0.0369,0.3037
0.9567,-0.0354,0.3044
0.956,-0.0347,0.3042
0.955,-0.0344,0.3042
0.9547,-0.0344,0.3044
0.9545,-0.034,0.3044
0.955,-0.0335,0.3044
0.9543,-0.032,0.3049
0.954,-0.0313,0.3059
0.954,-0.031,0.3056
0.9533,-0.031,0.3051
0.953,-0.031,0.3051
0.9523,-0.0308,0.3054
0.9521,-0.0305,0.3066
0.9521,-0.0305,0.3071
0.9516,-0.0305,0.3073
0.9513,-0.031,0.3071
0.9511,-0.0313,0.3071
0.9504,-0.0318,0.3078
0.9501,-0.0318,0.309
0.9499,-0.0322,0.3093
0.9496,-0.0327,0.309
0.9501,-0.0322,0.3093
0.9508,-0.0325,0.3095
0.9506,-0.0325,0.3105
0.9511,-0.032,0.3112
0.9518,-0.032,0.311
0.9523,-0.032,0.3117
0.9521,-0.0322,0.3117
0.953,-0.0325,0.3115
0.9543,-0.0325,0.3115
0.955,-0.0325,0.3117
0.9547,-0.0325,0.312
0.9547,-0.032,0.312
0.9562,-0.0322,0.3125
0.9567,-0.0327,0.3125
0.9562,-0.0335,0.3108
0.956,-0.034,0.3103
0.9569,-0.034,0.3108
0.9574,-0.0337,0.3108
0.9579,-0.034,0.3098
0.9584,-0.0337,0.3083
0.9589,-0.0337,0.3078
0.9589,-0.0342,0.3076
0.9591,-0.0349,0.3068
0.9591,-0.0344,0.3059
0.9591,-0.0335,0.3049
0.9591,-0.0337,0.3049
0.9591,-0.0347,0.3037
0.9591,-0.0352,0.3022
0.9594,-0.0349,0.302
0.9594,-0.0337,0.3017
0.9596,-0.0335,0.3022
0.9596,-0.0349,0.301
0.9606,-0.0357,0.3007
0.9611,-0.0359,0.3015
0.9613,-0.0357,0.301
0.9621,-0.0352,0.3015
0.9616,-0.0354,0.3025
0.9618,-0.0362,0.3025
0.9621,-0.0362,0.302
0.9628,-0.0359,0.302
0.9623,-0.0349,0.3027
0.9618,-0.0344,0.3022
0.9616,-0.0342,0.3015
0.9609,-0.0349,0.3007
0.9604,-0.0352,0.3007
0.9604,-0.0347,0.3007
0.9601,-0.034,0.3003
0.9594,-0.0335,0.3003
0.9587,-0.0332,0.2998
0.9579,-0.0325,0.2998
0.9569,-0.0325,0.3
0.9562,-0.0322,0.3
0.9555,-0.0325,0.2995
0.955,-0.0322,0.2995
0.9547,-0.0318,0.2998
0.955,-0.0313,0.3003
0.9552,-0.031,0.3012
0.9545,-0.031,0.3017
0.953,-0.0318,0.3017
0.953,-0.032,0.3032
0.9533,-0.0318,0.3044
0.9528,-0.0318,0.3049
0.9521,-0.0313,0.3049
0.9508,-0.0322,0.3054
0.9511,-0.033,0.3066
0.9518,-0.0332,0.3073
0.9518,-0.0322,0.3081
0.9518,-0.0322,0.3093
0.9518,-0.0332,0.309
0.9513,-0.0335,0.3095
0.9506,-0.0342,0.3108
0.9508,-0.0337,0.311
0.9516,-0.0337,0.3112
0.9518,-0.0342,0.3117
0.9526,-0.034,0.312
0.9526,-0.034,0.3115
0.953,-0.0349,0.3112
0.9543,-0.0349,0.3108
0.955,-0.0344,0.3098
0.9552,-0.0349,0.3088
0.9555,-0.0349,0.3081
0.956,-0.0352,0.3076
0.9569,-0.0354,0.3073
0.9577,-0.0347,0.3071
0.9577,-0.0344,0.3081
0.9572,-0.0349,0.3083
0.9565,-0.0352,0.3078
0.9567,-0.0349,0.3078
0.9579,-0.0347,0.3078
0.9587,-0.0354,0.3073
0.9589,-0.0362,0.3071
0.9587,-0.0359,0.3071
0.9582,-0.0354,0.3068
0.9574,-0.0352,0.3061
0.9579,-0.0349,0.3051
0.9584,-0.0342,0.3049
0.9579,-0.0352,0.3054
0.9582,-0.0354,0.3056
0.9591,-0.0347,0.3054
0.9584,-0.0344,0.3044
0.9574,-0.0347,0.3039
0.9579,-0.0347,0.3042
0.9579,-0.0342,0.3042
0.9574,-0.0342,0.3037
0.9574,-0.0344,0.3037
0.9572,-0.034,0.3039
0.9572,-0.0335,0.3046
0.9567,-0.033,0.3051
0.9565,-0.0327,0.3049
0.9562,-0.0327,0.3049
0.9565,-0.0327,0.3051
0.956,-0.0327,0.3059
0.9545,-0.0322,0.3064
0.954,-0.0315,0.3061
0.9547,-0.0305,0.3064
0.9547,-0.0303,0.3066
0.9545,-0.0303,0.3068
0.9545,-0.0298,0.3073
0.9538,-0.0296,0.3076
0.9523,-0.03,0.3081
0.9523,-0.0298,0.3088
0.9526,-0.0298,0.3093
0.9526,-0.0298,0.3095
0.9521,-0.0291,0.31
0.9516,-0.0286,0.3105
0.9511,-0.0296,0.311
0.9511,-0.0305,0.3112
0.9513,-0.0303,0.3125
0.9511,-0.0303,0.3132
0.9506,-0.0305,0.3132
0.9513,-0.031,0.3132
0.9516,-0.0308,0.3127
0.9513,-0.0305,0.3127
0.9508,-0.0305,0.313
0.9508,-0.03,0.3125
0.9516,-0.0303,0.313
0.9518,-0.031,0.313
0.9528,-0.0313,0.3127
0.9535,-0.0315,0.312
0.9543,-0.032,0.3115
0.9543,-0.0318,0.3117
0.9545,-0.032,0.3112
0.9552,-0.0325,0.3103
0.9557,-0.033,0.3093
0.9552,-0.0335,0.3098
0.9552,-0.0332,0.31
0.956,-0.0335,0.31
0.9565,-0.0342,0.3093
0.9565,-0.0347,0.3086
0.9572,-0.0347,0.3081
0.9574,-0.0349,0.3078
0.9574,-0.0344,0.3073
0.9574,-0.0342,0.3071
0.9579,-0.0352,0.3068
0.9584,-0.0357,0.3068
0.9584,-0.0352,0.3068
0.9591,-0.0347,0.3076
0.9594,-0.0347,0.3073
0.9591,-0.034,0.3068
0.9587,-0.0337,0.3066
0.9582,-0.0337,0.3068
0.9579,-0.034,0.3064
0.9579,-0.034,0.3056
0.9582,-0.0337,0.3061
0.9584,-0.0335,0.3071
0.9587,-0.0335,0.3071
0.9587,-0.0335,0.3061
0.9582,-0.0332,0.3049
0.9577,-0.0322,0.3039
0.9577,-0.0315,0.3044
0.9572,-0.0313,0.3044
0.9572,-0.0318,0.3046
0.9574,-0.0318,0.3046
0.9572,-0.0318,0.3049
0.9557,-0.031,0.3051
0.9552,-0.0308,0.3054
0.9547,-0.031,0.3056
0.955,-0.031,0.3056
0.9545,-0.0313,0.3051
0.9545,-0.031,0.3056
0.9535,-0.0315,0.3068
0.9528,-0.0318,0.3078
0.9533,-0.0322,0.3076
0.953,-0.0318,0.3068
0.9523,-0.031,0.3071
0.9516,-0.0313,0.3071
0.9516,-0.0315,0.3073
0.9506,-0.0315,0.3076
0.9489,-0.0313,0.3071
0.9479,-0.0315,0.3073
0.9474,-0.031,0.3076
0.9472,-0.031,0.3083
0.9467,-0.0313,0.3088
0.9467,-0.0308,0.3088
0.9472,-0.0305,0.3086
0.9477,-0.0303,0.3095
0.9472,-0.03,0.3108
0.9469,-0.0296,0.3112
0.9479,-0.0296,0.3112
0.9494,-0.0303,0.3112
0.9506,-0.0308,0.3127
0.9506,-0.0303,0.3139
0.9508,-0.0298,0.3147
0.9516,-0.03,0.3149
0.9526,-0.0298,0.3159
0.9535,-0.0298,0.3166
0.9543,-0.0305,0.3171
0.9547,-0.031,0.3171
0.9552,-0.0308,0.3164
0.9562,-0.0318,0.3154
0.9572,-0.0325,0.3154
0.9582,-0.0322,0.3154
0.9582,-0.0325,0.3142
0.9579,-0.033,0.3127
0.9587,-0.0332,0.3115
0.9582,-0.0332,0.3103
0.9577,-0.0332,0.3093
0.9582,-0.0337,0.3078
0.9587,-0.0344,0.3066
0.9589,-0.0347,0.3049
0.9589,-0.0342,0.3029
0.9587,-0.0337,0.3025
0.9582,-0.0337,0.3022
0.9587,-0.034,0.301
0.9591,-0.0342,0.3007
0.9599,-0.0344,0.301
0.9606,-0.0347,0.3007
0.9604,-0.0344,0.2995
0.9596,-0.0347,0.2988
0.9589,-0.0349,0.2995
0.9589,-0.0349,0.2993
0.9594,-0.0347,0.2993
0.9594,-0.0337,0.3005
0.9591,-0.034,0.3017
0.9589,-0.0347,0.3029
0.9587,-0.0354,0.3044
0.9591,-0.0349,0.3059
0.9591,-0.0344,0.3078
0.9587,-0.034,0.3086
0.9584,-0.034,0.31
0.9572,-0.0332,0.3115
0.9572,-0.0327,0.3132
0.9569,-0.0332,0.3142
0.9567,-0.0332,0.3144
0.9562,-0.0327,0.3147
0.9557,-0.032,0.3159
0.9557,-0.031,0.3166
0.9557,-0.0303,0.3164
0.9557,-0.0303,0.3161
0.9555,-0.0298,0.3154
0.9557,-0.0293,0.3154
0.9552,-0.0296,0.3156
0.9543,-0.0293,0.3147
0.9535,-0.0291,0.313
0.9523,-0.0286,0.312
0.9511,-0.0286,0.3115
0.9501,-0.0291,0.3108
0.9506,-0.0283,0.31
0.9508,-0.0281,0.31
0.9506,-0.0281,0.3095
0.9491,-0.0288,0.3093
0.9482,-0.0296,0.309
0.9477,-0.0303,0.3088
0.9474,-0.0305,0.3098
0.9472,-0.0308,0.3108
0.9472,-0.031,0.3117
0.9477,-0.0318,0.3112
0.9479,-0.032,0.31
0.9472,-0.0327,0.3098
0.9477,-0.0335,0.3095
0.9486,-0.0327,0.309
0.9496,-0.0327,0.31
0.9504,-0.0335,0.3105
0.9516,-0.0354,0.3105
0.9521,-0.0362,0.3098
0.9528,-0.0359,0.309
0.954,-0.0352,0.3095
0.9545,-0.0349,0.3095
0.9552,-0.0354,0.3088
0.9552,-0.0354,0.3078
0.956,-0.0349,0.3076
0.9567,-0.034,0.3078
0.9577,-0.0335,0.3081
0.9582,-0.0332,0.3081
0.9582,-0.033,0.3078
0.9591,-0.0327,0.3073
0.9587,-0.0325,0.3071
0.9587,-0.0327,0.3068
0.9591,-0.033,0.3064
0.9594,-0.032,0.3054
0.9591,-0.0315,0.3054
0.9596,-0.0318,0.3059
0.9601,-0.0313,0.3054
0.9604,-0.0308,0.3049
0.9601,-0.0293,0.3061
0.9591,-0.0288,0.3061
0.9574,-0.0296,0.3056
0.956,-0.0298,0.3061
0.9552,-0.0296,0.3068
0.955,-0.0288,0.3068
0.9543,-0.0283,0.3073
0.954,-0.0288,0.3081
0.9535,-0.03,0.3076
0.9533,-0.0305,0.3066
0.9521,-0.0298,0.3071
0.9513,-0.0303,0.3076
0.9518,-0.0303,0.3078
0.9521,-0.0298,0.3078
0.9521,-0.03,0.3078
0.9513,-0.0298,0.3081
0.9516,-0.0298,0.3081
0.9518,-0.0303,0.3081
0.9511,-0.031,0.3083
0.9511,-0.0315,0.3083
0.9518,-0.031,0.3086
0.9528,-0.031,0.3088
0.9535,-0.0313,0.3088
0.9535,-0.031,0.3093
0.953,-0.0313,0.3093
0.9538,-0.0318,0.309
0.9545,-0.0313,0.3093
0.9535,-0.0313,0.3095
0.9538,-0.0313,0.3088
0.954,-0.0318,0.3083
0.9543,-0.032,0.3083
0.955,-0.032,0.3086
0.955,-0.032,0.3078
0.9552,-0.032,0.3071
0.956,-0.032,0.3059
0.9555,-0.0322,0.3059
0.9552,-0.0322,0.3059
0.9552,-0.0335,0.3056
0.9562,-0.0344,0.3051
0.9569,-0.034,0.3049
0.9577,-0.0335,0.3046
0.9572,-0.0342,0.3039
0.9574,-0.0347,0.3042
0.9589,-0.0344,0.3046
0.9591,-0.0344,0.3046
0.9599,-0.0344,0.3039
0.9606,-0.0342,0.3039
0.9606,-0.0342,0.3044
0.9616,-0.0344,0.3051
0.9616,-0.0349,0.3049
0.9611,-0.0352,0.3049
0.9601,-0.0349,0.3049
0.9594,-0.0349,0.3059
0.9606,-0.0352,0.3073
0.9606,-0.0349,0.3078
0.9601,-0.0344,0.3071
0.9589,-0.034,0.3071
0.9579,-0.0332,0.3068
0.9574,-0.0332,0.3068
0.9567,-0.033,0.3064
0.9555,-0.0327,0.3061
0.9538,-0.0322,0.3064
0.953,-0.032,0.3066
0.953,-0.0318,0.3068
0.9523,-0.0325,0.3066
0.9513,-0.0322,0.3078
0.9508,-0.0315,0.3081
0.9501,-0.0308,0.3083
0.9494,-0.0308,0.3081
0.9489,-0.0305,0.3083
0.9484,-0.0305,0.3083
0.9489,-0.0315,0.3088
0.9494,-0.0332,0.3098
0.9489,-0.0337,0.3103
0.9491,-0.033,0.3105
0.9494,-0.032,0.3108
0.9491,-0.032,0.311
0.9486,-0.0327,0.3115
0.9491,-0.033,0.3122
0.9494,-0.0332,0.3122
0.9491,-0.0332,0.3117
0.9491,-0.0335,0.3125
0.9501,-0.0347,0.3137
0.9513,-0.0352,0.3139
0.9516,-0.0349,0.3127
0.9508,-0.0342,0.3117
0.9513,-0.0342,0.311
0.9523,-0.034,0.31
0.9538,-0.034,0.3103
0.9545,-0.0342,0.311
0.9557,-0.0344,0.312
0.9557,-0.0347,0.311
0.956,-0.0347,0.3098
0.9565,-0.0342,0.3086
0.9567,-0.0335,0.3086
0.9569,-0.0337,0.3098
0.9572,-0.0344,0.3098
0.9579,-0.0342,0.3095
0.9589,-0.0347,0.3093
0.9594,-0.0344,0.3093
0.9587,-0.0337,0.3098
0.9584,-0.034,0.3103
0.9582,-0.0344,0.309
0.9584,-0.0344,0.3078
0.9587,-0.0342,0.3076
0.9591,-0.0337,0.3076
0.9591,-0.0335,0.3071
0.9587,-0.0337,0.3073
0.9579,-0.0337,0.3081
0.9582,-0.0332,0.3071
0.9587,-0.0327,0.3068
0.9587,-0.032,0.3068
0.9582,-0.032,0.3068
0.9584,-0.0325,0.3064
0.9574,-0.0322,0.3059
0.9567,-0.0315,0.3056
0.9572,-0.0313,0.3061
0.9567,-0.0318,0.3068
0.9565,-0.0315,0.3076
0.9562,-0.0318,0.3083
0.9567,-0.0325,0.3076
0.9562,-0.033,0.3071
0.955,-0.0332,0.3073
0.9543,-0.0327,0.3083
0.9538,-0.0325,0.3095
0.9538,-0.0322,0.3105
0.954,-0.0325,0.3108
0.9538,-0.0325,0.3098
0.9538,-0.0327,0.3103
0.9543,-0.0325,0.311
0.9538,-0.0322,0.3112
0.9523,-0.0322,0.3115
0.9521,-0.0322,0.3117
0.9528,-0.0325,0.3117
0.9533,-0.0327,0.3122
0.9535,-0.0332,0.3127
0.9528,-0.0335,0.3122
0.9526,-0.034,0.312
0.9533,-0.0344,0.3117
0.9533,-0.034,0.3122
0.9528,-0.0335,0.3125
0.9523,-0.0332,0.3122
0.9535,-0.0332,0.3115
0.9538,-0.0335,0.3103
0.954,-0.0342,0.3103
0.9545,-0.0344,0.3108
0.9545,-0.0347,0.3108
0.9545,-0.0352,0.3108
0.955,-0.0349,0.31
0.9543,-0.0347,0.3093
0.9545,-0.0344,0.3093
0.9552,-0.0349,0.309
0.9557,-0.0359,0.3083
0.9555,-0.0364,0.3073
0.9557,-0.0362,0.3071
0.9555,-0.0357,0.3073
0.956,-0.0357,0.3068
0.9565,-0.0362,0.3073
0.956,-0.0357,0.3073
0.9557,-0.0362,0.3064
0.9557,-0.0362,0.3061
0.9555,-0.0364,0.3064
0.9562,-0.0366,0.3059
0.9565,-0.0366,0.3059
0.9552,-0.0364,0.3061
0.9545,-0.0357,0.3061
0.9545,-0.0354,0.3066
0.9545,-0.0354,0.3064
0.9538,-0.0359,0.3059
0.953,-0.0362,0.3068
0.9533,-0.0364,0.3081
0.954,-0.0359,0.3078
0.9535,-0.0349,0.3071
0.9521,-0.0354,0.3073
0.9523,-0.0354,0.3073
0.9528,-0.0354,0.3073
0.9528,-0.0359,0.3076
0.9528,-0.0359,0.3076
0.9521,-0.0352,0.3076
0.9506,-0.034,0.3078
0.9499,-0.0344,0.3078
0.9506,-0.0354,0.3078
0.9504,-0.0347,0.3078
0.9494,-0.034,0.3081
0.9499,-0.0337,0.3086
0.9511,-0.0335,0.3093
0.9521,-0.0335,0.3103
0.9528,-0.034,0.3108
0.9528,-0.0344,0.31
0.9521,-0.0347,0.31
0.953,-0.0344,0.311
0.9533,-0.034,0.312
0.953,-0.0332,0.313
0.9538,-0.0332,0.3127
0.9538,-0.033,0.3132
0.9535,-0.0327,0.3137
0.953,-0.0327,0.3132
0.9538,-0.032,0.313
0.9545,-0.0318,0.313
0.9545,-0.0315,0.3134
0.955,-0.032,0.3144
0.955,-0.0322,0.3144
0.9545,-0.0322,0.3144
0.954,-0.0313,0.3142
0.9545,-0.0303,0.3132
0.9552,-0.031,0.313
0.9547,-0.0308,0.3132
0.9547,-0.03,0.3137
0.955,-0.0296,0.3134
0.9545,-0.0286,0.3125
0.9535,-0.0288,0.3122
0.9528,-0.0296,0.3122
0.9523,-0.0296,0.3122
0.9526,-0.0288,0.3127
0.9526,-0.0283,0.3125
0.9513,-0.0286,0.313
0.9504,-0.0288,0.3125
0.9494,-0.0279,0.3117
0.9486,-0.0264,0.3115
0.9496,-0.0264,0.3117
0.9501,-0.0274,0.312
0.9494,-0.0281,0.3125
0.9491,-0.0276,0.3132
0.9494,-0.0274,0.3134
0.9501,-0.0271,0.3137
0.9508,-0.0274,0.3142
0.9521,-0.0269,0.3142
0.953,-0.0264,0.3142
0.9528,-0.0266,0.3144
0.9533,-0.0279,0.3149
0.9535,-0.0281,0.3152
0.9545,-0.0293,0.3149
0.9547,-0.0298,0.3142
0.9555,-0.03,0.3144
0.9567,-0.0298,0.3147
0.9574,-0.0291,0.3147
0.9587,-0.0293,0.3139
0.9591,-0.0303,0.313
0.9591,-0.031,0.312
0.9596,-0.031,0.3112
0.9599,-0.031,0.3098
0.9604,-0.0313,0.3086
0.9601,-0.031,0.3073
0.9596,-0.0315,0.3066
0.9591,-0.032,0.3061
0.9591,-0.032,0.3049
0.9591,-0.0325,0.3034
0.9587,-0.032,0.3025
0.9579,-0.0313,0.3017
0.9569,-0.0303,0.3017
0.9562,-0.0305,0.301
0.956,-0.0308,0.3003
0.9555,-0.0315,0.301
0.9545,-0.0313,0.3005
0.9545,-0.0318,0.2995
0.9545,-0.032,0.299
0.9543,-0.032,0.2993
0.954,-0.0322,0.2995
0.9543,-0.0325,0.3007
0.9543,-0.0325,0.3027
0.9545,-0.0322,0.3034
0.9557,-0.0325,0.3039
0.9555,-0.0325,0.3051
0.955,-0.033,0.3068
0.9545,-0.0332,0.3078
0.9545,-0.0325,0.3088
0.9552,-0.0332,0.3108
0.9555,-0.034,0.3127
0.956,-0.0342,0.3144
0.9567,-0.0342,0.3154
0.9574,-0.0347,0.3152
0.9584,-0.0349,0.3154
0.9584,-0.0347,0.3154
0.9587,-0.034,0.3159
0.9594,-0.034,0.3166
0.9609,-0.0349,0.3164
0.9609,-0.0354,0.3159
0.9609,-0.0349,0.3149
0.9606,-0.0344,0.3142
0.9616,-0.0337,0.3132
0.9616,-0.0332,0.3112
0.9616,-0.0335,0.3098
0.9613,-0.0327,0.3088
0.9609,-0.0322,0.3086
0.9594,-0.0327,0.3073
0.9579,-0.0337,0.3068
0.9565,-0.0335,0.3081
0.9555,-0.0322,0.3068
0.9555,-0.032,0.3046
0.9562,-0.0325,0.3032
0.9552,-0.0337,0.3027
0.954,-0.0352,0.3025
0.954,-0.0349,0.3022
0.9533,-0.0347,0.3022
0.9521,-0.0352,0.302
0.9523,-0.0352,0.302
0.9526,-0.0352,0.3015
0.9518,-0.0354,0.3017
0.9513,-0.0362,0.302
0.9508,-0.0371,0.3022
0.9508,-0.0374,0.3029
0.9504,-0.0381,0.3034
0.9518,-0.0384,0.3042
0.9526,-0.0381,0.3044
0.9523,-0.0381,0.3054
0.9526,-0.0384,0.3061
0.9528,-0.0384,0.3073
0.953,-0.0381,0.3071
0.9543,-0.0374,0.3076
0.9555,-0.0366,0.3083
0.956,-0.0362,0.3081
0.9572,-0.0357,0.3081
0.9584,-0.0359,0.3086
0.9589,-0.0359,0.3083
0.9599,-0.0347,0.3076
0.9601,-0.0342,0.3078
0.9606,-0.0342,0.3088
0.9621,-0.0335,0.3095
0.9628,-0.0327,0.3093
0.9618,-0.0327,0.3093
0.9618,-0.0327,0.3086
0.9626,-0.032,0.3073
0.9631,-0.0315,0.3066
0.9631,-0.0318,0.3059
0.9631,-0.0313,0.3059
0.9631,-0.031,0.3059
0.9628,-0.0318,0.3056
0.9618,-0.0318,0.3056
0.9616,-0.0315,0.3061
0.9611,-0.0303,0.3068
0.9606,-0.0296,0.3071
0.9606,-0.0305,0.3061
0.9601,-0.0308,0.3059
0.9594,-0.0305,0.3066
0.9591,-0.0303,0.3073
0.9591,-0.0305,0.3088
0.9589,-0.0305,0.3095
0.9587,-0.0303,0.3093
0.9572,-0.03,0.3093
0.9557,-0.031,0.3086
0.9562,-0.031,0.3088
0.9565,-0.0308,0.3093
0.9543,-0.03,0.3095
0.9523,-0.0293,0.3103
0.9518,-0.0296,0.3115
0.9516,-0.0296,0.3125
0.9504,-0.0291,0.3127
0.9494,-0.0291,0.313
0.9486,-0.0296,0.313
0.9477,-0.0291,0.313
0.9464,-0.0291,0.313
0.9462,-0.0291,0.3134
0.9464,-0.0283,0.3132
0.9469,-0.0281,0.313
0.9467,-0.0286,0.3125
0.9462,-0.0291,0.3122
0.946,-0.0296,0.3122
0.9464,-0.0296,0.3117
0.9472,-0.0298,0.3112
0.9482,-0.03,0.3105
0.9484,-0.03,0.3105
0.9484,-0.0308,0.3108
0.9486,-0.031,0.3098
0.9496,-0.031,0.3083
0.9501,-0.0315,0.3081
0.9508,-0.0315,0.3078
0.9526,-0.0318,0.3076
0.9533,-0.0327,0.3071
0.9545,-0.033,0.3073
0.9565,-0.0325,0.3073
0.9579,-0.0327,0.3078
0.9591,-0.0337,0.3086
0.9604,-0.034,0.3086
0.9613,-0.0337,0.309
0.9623,-0.034,0.3083
0.9633,-0.0344,0.3076
0.9631,-0.0349,0.3071
0.9631,-0.0342,0.3066
0.9628,-0.0342,0.3064
0.9628,-0.0335,0.3061
0.9628,-0.0325,0.3054
0.9628,-0.0327,0.3046
0.9618,-0.0335,0.3046
0.9613,-0.0335,0.3049
0.9613,-0.0332,0.3039
0.9611,-0.0332,0.3027
0.9601,-0.0327,0.3025
0.9587,-0.0318,0.3022
0.9577,-0.0315,0.3015
0.9562,-0.032,0.3015
0.9547,-0.0325,0.3012
0.9545,-0.0318,0.3015
0.9547,-0.032,0.3012
0.9552,-0.033,0.3003
0.955,-0.0335,0.3005
0.9538,-0.034,0.301
0.9521,-0.0344,0.3012
0.9521,-0.0344,0.3017
0.9526,-0.0344,0.3042
0.953,-0.0344,0.3046
0.9535,-0.0352,0.3046
0.953,-0.0354,0.3054
0.953,-0.0362,0.3066
0.9528,-0.0362,0.3066
0.9526,-0.0359,0.3068
0.9535,-0.0366,0.3078
0.9547,-0.0374,0.3076
0.9557,-0.0371,0.3071
0.9562,-0.0371,0.3078
0.956,-0.0376,0.3081
0.956,-0.0381,0.3073
0.9567,-0.0376,0.3066
0.9557,-0.0384,0.3059
0.955,-0.0388,0.3059
0.9555,-0.0376,0.3059
0.9562,-0.0376,0.3054
0.9567,-0.0381,0.3054
0.9572,-0.0379,0.3064
0.9572,-0.0374,0.3066
0.9574,-0.0371,0.3066
0.9577,-0.0371,0.3066
0.9582,-0.0369,0.3064
0.9589,-0.0364,0.3064
0.9582,-0.0359,0.3068
0.9579,-0.0359,0.3068
0.9579,-0.0354,0.3078
0.9587,-0.0344,0.3083
0.9579,-0.0342,0.3073
0.9582,-0.034,0.3078
0.9587,-0.034,0.309
0.9587,-0.034,0.3103
0.9589,-0.0342,0.3127
0.9591,-0.034,0.3132
0.9587,-0.033,0.3137
0.9572,-0.0322,0.3152
0.9567,-0.0325,0.3166
0.9565,-0.0327,0.3174
0.9572,-0.032,0.3176
0.9569,-0.0315,0.3186
0.9552,-0.0313,0.3196
0.9543,-0.0313,0.3205
0.9535,-0.0308,0.321
0.953,-0.0305,0.3215
0.953,-0.0305,0.3227
0.9535,-0.0305,0.324
0.9538,-0.03,0.3252
0.9528,-0.0296,0.3254
0.9516,-0.0296,0.3252
0.9508,-0.0296,0.3249
0.9506,-0.0291,0.3249
0.9491,-0.0288,0.3249
0.9482,-0.0291,0.3252
0.9484,-0.0291,0.3249
0.9491,-0.0276,0.3244
0.9489,-0.0279,0.324
0.9491,-0.0288,0.3235
0.9501,-0.0293,0.3227
0.9499,-0.0293,0.3218
0.9499,-0.0291,0.321
0.9501,-0.0298,0.321
0.9511,-0.0313,0.321
0.9526,-0.0318,0.3208
0.9535,-0.031,0.3186
0.9552,-0.0308,0.3159
0.9572,-0.0308,0.3142
0.9582,-0.0318,0.313
0.9589,-0.0322,0.3105
0.9599,-0.032,0.309
0.9621,-0.0325,0.3078
0.9643,-0.0332,0.3066
0.9662,-0.0335,0.3059
0.9679,-0.0337,0.3046
0.9679,-0.0349,0.3032
0.9677,-0.0362,0.3017
0.9679,-0.0362,0.3015
0.9697,-0.0357,0.301
0.9709,-0.0357,0.3
0.9709,-0.0359,0.2998
0.9701,-0.0366,0.2983
0.9697,-0.0366,0.2976
0.9692,-0.0362,0.2976
0.9687,-0.0359,0.2983
0.9677,-0.0357,0.2985
0.9662,-0.0347,0.2993
0.9655,-0.0337,0.3003
0.9631,-0.0335,0.3003
0.9609,-0.0327,0.301
0.9591,-0.0313,0.302
0.9572,-0.03,0.3032
0.9557,-0.0303,0.3046
0.9547,-0.03,0.3068
0.953,-0.0298,0.3086
0.9516,-0.0288,0.3088
0.9501,-0.0279,0.311
0.9484,-0.0274,0.3132
0.9472,-0.0269,0.3144
0.946,-0.0269,0.3147
0.9452,-0.0266,0.3149
0.945,-0.0266,0.3159
0.9438,-0.0259,0.3171
0.9433,-0.0254,0.3178
0.9433,-0.0252,0.3193
0.943,-0.0254,0.3198
0.942,-0.0259,0.3196
0.9411,-0.0257,0.32
0.9406,-0.0252,0.3198
0.9408,-0.0249,0.3203
0.9411,-0.0247,0.3208
0.9408,-0.0244,0.321
0.9406,-0.0247,0.3208
0.9411,-0.0249,0.3196
0.9413,-0.0252,0.3196
0.9428,-0.0261,0.3191
0.9438,-0.0261,0.3176
0.944,-0.0261,0.3166
0.9445,-0.0269,0.3166
0.9452,-0.0274,0.3171
0.9462,-0.0279,0.3171
0.9477,-0.0286,0.3159
0.9486,-0.0296,0.3144
0.9491,-0.0291,0.3142
0.9496,-0.0286,0.3152
0.9506,-0.0293,0.3152
0.9508,-0.0308,0.3144
0.9513,-0.0315,0.313
0.9513,-0.0325,0.3122
0.9516,-0.033,0.3125
0.9518,-0.033,0.313
0.9528,-0.033,0.3132
0.9533,-0.0332,0.3132
0.9535,-0.0335,0.3137
0.9545,-0.0337,0.3137
0.9552,-0.0342,0.313
0.9545,-0.0344,0.3125
0.9538,-0.034,0.3122
0.9545,-0.0342,0.3115
0.955,-0.0347,0.3105
0.9543,-0.0344,0.3108
0.9545,-0.034,0.3115
0.9555,-0.0332,0.311
0.9557,-0.0332,0.3108
0.9569,-0.033,0.3098
0.9579,-0.0327,0.309
0.9582,-0.0332,0.3103
0.9587,-0.034,0.311
0.9596,-0.0335,0.312
0.9606,-0.0337,0.3127
0.9616,-0.034,0.3132
0.9616,-0.0335,0.3139
0.9621,-0.0332,0.3147
0.9618,-0.0337,0.3154
0.9613,-0.0344,0.3159
0.9611,-0.0342,0.3166
0.9616,-0.0342,0.3169
0.9613,-0.0342,0.3181
0.9604,-0.034,0.3186
0.9594,-0.034,0.3191
0.9591,-0.034,0.3196
0.9596,-0.0342,0.3198
0.9589,-0.034,0.3196
0.9572,-0.0332,0.3188
0.9555,-0.0332,0.3186
0.9547,-0.033,0.3183
0.954,-0.0322,0.3178
0.9521,-0.032,0.3171
0.9506,-0.032,0.3166
0.9501,-0.0318,0.3159
0.9494,-0.0313,0.3156
0.9482,-0.0313,0.3161
0.9462,-0.0318,0.3159
0.9452,-0.0313,0.3147
0.9442,-0.03,0.3139
0.9423,-0.0293,0.3137
0.9411,-0.0283,0.3142
0.9403,-0.0283,0.3156
0.9403,-0.0281,0.3178
0.9406,-0.0276,0.3193
0.9406,-0.0276,0.3198
0.9401,-0.0274,0.3205
0.9403,-0.0274,0.3215
0.9406,-0.0276,0.3225
0.9406,-0.0274,0.3237
0.9411,-0.0264,0.3252
0.9418,-0.0266,0.3269
0.9425,-0.0274,0.3286
0.9438,-0.0266,0.3301
0.945,-0.0266,0.3301
0.9452,-0.0274,0.3303
0.9452,-0.0274,0.3318
0.9464,-0.0271,0.3323
0.9479,-0.0279,0.333
0.9489,-0.0288,0.334
0.9508,-0.0291,0.333
0.9513,-0.0293,0.3318
0.9518,-0.0305,0.3308
0.9533,-0.0342,0.3301
0.9574,-0.0476,0.321
0.9604,-0.052,0.3115
0.9628,-0.0459,0.3154
0.9613,-0.0376,0.3257
0.9594,-0.0332,0.3347
0.9577,-0.0308,0.3381
0.956,-0.0283,0.3362
0.9567,-0.0274,0.3318
0.9589,-0.0264,0.3279
0.9621,-0.0266,0.3264
0.9643,-0.0281,0.3259
0.965,-0.0298,0.3266
0.964,-0.0313,0.3257
0.9623,-0.0322,0.3232
0.9589,-0.033,0.32
0.9567,-0.0337,0.3181
0.9545,-0.0349,0.3176
0.9521,-0.0354,0.3174
0.9499,-0.0352,0.3164
0.9482,-0.0352,0.3154
0.9472,-0.0347,0.3152
0.946,-0.034,0.3144
0.945,-0.0332,0.3137
0.9447,-0.0332,0.3139
0.945,-0.0327,0.3142
0.946,-0.0318,0.3147
0.9464,-0.0315,0.3144
0.9472,-0.0303,0.3147
0.9469,-0.0296,0.3149
0.9464,-0.0288,0.3149
0.946,-0.0281,0.3161
0.9455,-0.0274,0.3164
0.9455,-0.0271,0.3164
0.9447,-0.0266,0.3166
0.9435,-0.0271,0.3164
0.9438,-0.0274,0.3166
0.9442,-0.0274,0.3181
0.944,-0.0269,0.3178
0.9445,-0.0274,0.3171
0.9447,-0.0271,0.3174
0.9447,-0.0269,0.3178
0.9445,-0.0269,0.3178
0.9452,-0.0266,0.3176
0.9462,-0.0266,0.3174
0.9462,-0.0261,0.3176
0.9464,-0.0264,0.3174
0.9479,-0.0274,0.3171
0.9491,-0.0286,0.3166
0.9499,-0.0288,0.3164
0.9501,-0.0283,0.3161
0.9511,-0.0279,0.3156
0.9533,-0.0281,0.3154
0.9552,-0.0293,0.3154
0.9562,-0.0308,0.3144
0.9572,-0.031,0.3137
0.9577,-0.0308,0.313
0.9579,-0.0308,0.3122
0.9577,-0.0315,0.3115
0.9577,-0.032,0.312
0.9579,-0.0325,0.3127
0.9587,-0.0335,0.313
0.9587,-0.0342,0.3125
0.9572,-0.0342,0.312
0.9562,-0.0337,0.312
0.9552,-0.0332,0.313
0.9545,-0.0335,0.3144
0.953,-0.034,0.3154
0.9521,-0.034,0.3156
0.9511,-0.0344,0.3159
0.9506,-0.0344,0.3159
0.9499,-0.034,0.3169
0.9499,-0.0335,0.3186
0.9486,-0.0332,0.3198
0.9479,-0.0327,0.3191
0.9477,-0.0327,0.3191
0.9469,-0.0332,0.3198
0.9462,-0.0325,0.3196
0.9462,-0.032,0.3205
0.9464,-0.032,0.321
0.9457,-0.032,0.3208
0.9457,-0.0315,0.321
0.9462,-0.0305,0.3208
0.946,-0.0305,0.3203
0.9462,-0.0305,0.3196
0.9462,-0.0305,0.3188
0.9464,-0.0313,0.3188
0.9472,-0.0313,0.3196
0.9482,-0.0298,0.3193
0.9486,-0.0288,0.32
0.9486,-0.0288,0.3203
0.9496,-0.0288,0.32
0.9511,-0.0286,0.3205
0.9513,-0.0288,0.321
0.9516,-0.0286,0.3208
0.9521,-0.0276,0.321
0.9523,-0.0269,0.3205
0.9535,-0.0269,0.32
0.954,-0.0276,0.3196
0.9535,-0.0279,0.32
0.953,-0.0276,0.3203
0.9535,-0.0271,0.3203
0.9533,-0.0269,0.3205
0.9526,-0.0274,0.32
0.9521,-0.0281,0.3193
0.9526,-0.0281,0.3188
0.9523,-0.0276,0.3186
0.9523,-0.0276,0.3183
0.9526,-0.0279,0.3183
0.9518,-0.0286,0.3178
0.9513,-0.0291,0.3174
0.9518,-0.0291,0.3174
0.9528,-0.0293,0.3176
0.9538,-0.0298,0.3174
0.9538,-0.0298,0.3174
0.954,-0.03,0.3174
0.9543,-0.031,0.3166
0.954,-0.032,0.3171
0.9543,-0.0322,0.3183
0.9552,-0.032,0.3178
0.9565,-0.0325,0.3174
0.9555,-0.0322,0.3171
0.9543,-0.0322,0.3161
0.955,-0.032,0.3161
0.956,-0.0318,0.3164
0.9555,-0.0315,0.3156
0.9557,-0.0308,0.3156
0.956,-0.0305,0.3169
0.956,-0.0313,0.3176
0.9555,-0.031,0.3171
0.9552,-0.031,0.3164
0.955,-0.0315,0.3154
0.9552,-0.0325,0.3139
0.956,-0.0325,0.3132
0.9565,-0.033,0.3132
0.9567,-0.0335,0.3125
0.9572,-0.0335,0.3115
0.9572,-0.033,0.3115
0.9572,-0.033,0.3112
0.9574,-0.0337,0.3108
0.9584,-0.0344,0.311
0.9591,-0.0344,0.3108
0.9591,-0.0347,0.3103
0.9587,-0.0342,0.31
0.9584,-0.0337,0.31
0.9574,-0.0332,0.3108
0.9567,-0.033,0.3105
0.956,-0.033,0.3103
0.9547,-0.0325,0.3103
0.9533,-0.0322,0.3105
0.9523,-0.032,0.3112
0.9521,-0.0313,0.3112
0.9523,-0.0313,0.3117
0.9518,-0.0318,0.3127
0.9508,-0.0315,0.313
0.9501,-0.0313,0.313
0.9494,-0.0313,0.3132
0.9484,-0.0318,0.3134
0.9482,-0.032,0.3142
0.9472,-0.0318,0.3149
0.946,-0.0318,0.3164
0.9467,-0.0318,0.3171
0.9469,-0.0322,0.3169
0.9462,-0.0325,0.3166
0.946,-0.032,0.3176
0.946,-0.032,0.3178
0.9462,-0.0327,0.3188
0.9464,-0.033,0.3193
0.9467,-0.0318,0.32
0.9462,-0.0313,0.3203
0.9464,-0.0315,0.32
0.9469,-0.0325,0.3193
0.9479,-0.0332,0.3196
0.9486,-0.0332,0.32
0.9494,-0.0332,0.3205
0.9504,-0.0335,0.321
0.9506,-0.034,0.3208
0.9501,-0.0337,0.3205
0.9499,-0.0342,0.3205
0.9501,-0.0342,0.3205
0.9513,-0.0335,0.321
0.9523,-0.0335,0.3215
0.9526,-0.034,0.3208
0.9526,-0.0344,0.3198
0.9526,-0.0349,0.32
0.9528,-0.0347,0.32
0.953,-0.0342,0.3193
0.9533,-0.0342,0.3188
0.9535,-0.0344,0.3188
0.9543,-0.034,0.3181
0.9545,-0.0327,0.3174
0.9533,-0.0325,0.3171
0.9528,-0.0335,0.3169
0.953,-0.034,0.3169
0.954,-0.0332,0.3169
0.9552,-0.0327,0.3171
0.956,-0.0327,0.3174
0.9555,-0.033,0.3178
0.955,-0.0335,0.3183
0.955,-0.0342,0.3188
0.9547,-0.0352,0.3188
0.9547,-0.0347,0.3193
0.9552,-0.0337,0.3191
0.9543,-0.034,0.3183
0.954,-0.0344,0.3178
0.9543,-0.0349,0.3181
0.954,-0.0354,0.3186
0.9543,-0.0349,0.3188
0.9547,-0.0344,0.3188
0.9547,-0.0344,0.3183
0.9552,-0.0342,0.3186
0.9552,-0.0337,0.3188
0.9562,-0.0335,0.3193
0.9562,-0.0327,0.32
0.9562,-0.0327,0.3198
0.9569,-0.0327,0.3198
0.9567,-0.0327,0.3198
0.9567,-0.032,0.3193
0.9574,-0.0322,0.3188
0.9574,-0.0332,0.3188
0.9565,-0.0327,0.3193
0.956,-0.0322,0.3208
0.956,-0.032,0.3213
0.956,-0.0322,0.3222
0.9557,-0.0315,0.3222
0.9547,-0.0305,0.3218
0.9538,-0.0308,0.3215
0.9528,-0.0303,0.322
0.9526,-0.0303,0.3222
0.9518,-0.0305,0.322
0.9508,-0.0308,0.323
0.9506,-0.0305,0.3237
0.9499,-0.031,0.323
0.9486,-0.0318,0.323
0.9477,-0.0318,0.3232
0.9469,-0.0318,0.3227
0.9462,-0.0315,0.3227
0.9464,-0.0313,0.3232
0.9457,-0.0318,0.323
0.9445,-0.032,0.3227
0.9435,-0.0308,0.3237
0.9433,-0.0305,0.324
0.944,-0.0313,0.324
0.9442,-0.0318,0.3242
0.9433,-0.0318,0.3242
0.9438,-0.0313,0.3249
0.9447,-0.0313,0.3261
0.9442,-0.032,0.3276
0.9445,-0.0327,0.3288
0.9452,-0.0327,0.3296
0.945,-0.032,0.3303
0.9445,-0.0318,0.3318
0.9452,-0.0318,0.3335
0.9464,-0.0315,0.3337
0.9472,-0.0318,0.333
0.9472,-0.0315,0.3337
0.9472,-0.032,0.3352
0.9477,-0.0322,0.3357
0.9479,-0.0315,0.3347
0.9482,-0.0318,0.3345
0.9482,-0.0332,0.334
0.9482,-0.0335,0.334
0.9484,-0.0335,0.334
0.9482,-0.0327,0.3332
0.9474,-0.0322,0.3318
0.9469,-0.0325,0.3301
0.9467,-0.0322,0.3293
0.9472,-0.0322,0.3286
0.9472,-0.0318,0.3266
0.9472,-0.0322,0.3247
0.9479,-0.0325,0.3237
0.9479,-0.0327,0.323
0.9479,-0.0327,0.3218
0.9482,-0.0327,0.321
0.9486,-0.0322,0.3208
0.9482,-0.0327,0.3208
0.9474,-0.0327,0.3203
0.9474,-0.033,0.3193
0.9489,-0.0327,0.3186
0.9496,-0.0325,0.3188
0.9501,-0.033,0.3183
0.9494,-0.0332,0.3191
0.9491,-0.033,0.32
0.9494,-0.0325,0.3208
0.9508,-0.0322,0.3218
0.9518,-0.0327,0.3232
0.9518,-0.0332,0.3247
0.9526,-0.0332,0.3249
0.9538,-0.0327,0.3257
0.9543,-0.0327,0.3271
0.9543,-0.033,0.3288
0.9555,-0.0327,0.3301
0.956,-0.0327,0.3308
0.9565,-0.0322,0.3318
0.9567,-0.032,0.333
0.9567,-0.0318,0.334
0.9572,-0.0315,0.3335
0.9577,-0.032,0.3332
0.9577,-0.0318,0.3332
0.9565,-0.0318,0.3325
0.9562,-0.0305,0.3313
0.9567,-0.0308,0.3301
0.9565,-0.0322,0.3276
0.9557,-0.0322,0.3259
0.955,-0.031,0.3247
0.9545,-0.0308,0.3235
0.9543,-0.0318,0.322
0.9545,-0.032,0.3213
0.954,-0.032,0.3215
0.953,-0.033,0.321
0.9526,-0.0337,0.3205
0.9518,-0.033,0.3203
0.9513,-0.0327,0.3193
0.9513,-0.033,0.3193
0.9513,-0.034,0.3191
0.9513,-0.0342,0.3183
0.9504,-0.0344,0.3178
0.9486,-0.0347,0.3181
0.9472,-0.0347,0.3178
0.9467,-0.0354,0.3178
0.9472,-0.0362,0.3186
0.9472,-0.0354,0.3191
0.9467,-0.0352,0.3188
0.9469,-0.0354,0.3178
0.9472,-0.0352,0.3181
0.9479,-0.0354,0.3181
0.9482,-0.0362,0.3186
0.9482,-0.0362,0.3198
0.9479,-0.0357,0.3196
0.9469,-0.0357,0.3191
0.9472,-0.0354,0.3186
0.9491,-0.0347,0.3191
0.9499,-0.034,0.3191
0.9489,-0.034,0.3186
0.9479,-0.0335,0.3186
0.9486,-0.0335,0.3196
0.9501,-0.0337,0.3196
0.9506,-0.0342,0.3196
0.9506,-0.0337,0.3188
0.9513,-0.033,0.3181
0.9516,-0.0325,0.3186
0.9526,-0.0325,0.3186
0.953,-0.0327,0.3183
0.953,-0.0327,0.3186
0.9528,-0.032,0.3188
0.9526,-0.0313,0.3191
0.953,-0.032,0.3188
0.9533,-0.032,0.3186
0.9538,-0.032,0.3186
0.954,-0.032,0.3191
0.9526,-0.0313,0.3196
0.9513,-0.0308,0.3198
0.9506,-0.0305,0.3191
0.9506,-0.0303,0.3186
0.9511,-0.0305,0.3186
0.9501,-0.0305,0.3183
0.9499,-0.0303,0.3191
0.9504,-0.031,0.3196
0.9504,-0.0315,0.3188
0.9499,-0.0313,0.3183
0.9486,-0.0303,0.3191
0.9486,-0.03,0.3193
0.9482,-0.0308,0.3196
0.9489,-0.0315,0.321
0.9496,-0.0315,0.322
0.9484,-0.032,0.3218
0.9477,-0.0322,0.3218
0.9482,-0.0318,0.3222
0.9482,-0.0315,0.3218
0.9482,-0.032,0.3215
0.9484,-0.0335,0.3222
0.9489,-0.034,0.3247
0.9499,-0.0332,0.3257
0.9491,-0.0325,0.3249
0.9479,-0.0325,0.3237
0.9479,-0.034,0.3244
0.9486,-0.0342,0.3252
0.9491,-0.0344,0.3252
0.9489,-0.0337,0.3264
0.9489,-0.0337,0.3266
0.9489,-0.034,0.3264
0.9494,-0.0344,0.3259
0.9496,-0.0344,0.3261
0.9499,-0.034,0.3264
0.9499,-0.034,0.3261
0.9506,-0.0344,0.3254
0.9508,-0.0352,0.3254
0.9513,-0.0354,0.3254
0.9523,-0.0354,0.3252
0.9535,-0.0344,0.3252
0.954,-0.034,0.3254
0.954,-0.0347,0.3264
0.9547,-0.0347,0.3266
0.9562,-0.0347,0.3259
0.9572,-0.0347,0.3259
0.9579,-0.0344,0.3257
0.9589,-0.0342,0.3252
0.9589,-0.0344,0.3247
0.9587,-0.0352,0.3249
0.9589,-0.0352,0.324
0.9601,-0.0344,0.3232
0.9609,-0.0332,0.3232
0.9611,-0.0322,0.3222
0.9606,-0.0322,0.3208
0.9606,-0.0322,0.3198
0.9594,-0.0318,0.3188
0.9577,-0.0313,0.3176
0.9577,-0.0315,0.3166
0.9577,-0.0313,0.3152
0.9577,-0.031,0.3142
0.9577,-0.0305,0.3149
0.9577,-0.03,0.3154
0.9582,-0.0296,0.3164
0.9589,-0.0279,0.3174
0.9587,-0.0276,0.3183
0.9584,-0.0281,0.321
0.9577,-0.0274,0.323
0.9565,-0.0269,0.3242
0.9557,-0.0264,0.3257
0.9552,-0.0254,0.3269
0.9545,-0.0252,0.3276
0.954,-0.0269,0.3288
0.9535,-0.0279,0.3291
0.9526,-0.0281,0.3288
0.9518,-0.0291,0.3279
0.9513,-0.0298,0.3264
0.9501,-0.0305,0.3249
0.9496,-0.0315,0.3242
0.9491,-0.033,0.324
0.9484,-0.0335,0.3235
0.9482,-0.0335,0.3222
0.9474,-0.0347,0.321
0.9464,-0.0359,0.32
0.9467,-0.0369,0.3193
0.9469,-0.0371,0.3186
0.9464,-0.0376,0.3193
0.946,-0.0386,0.3205
0.9462,-0.0398,0.3208
0.946,-0.0406,0.3208
0.9455,-0.0418,0.3218
0.9457,-0.0425,0.3222
0.9457,-0.0428,0.323
0.9452,-0.0428,0.3232
0.9447,-0.0428,0.3237
0.9445,-0.0423,0.324
0.9447,-0.0418,0.3249
0.945,-0.042,0.3257
0.9445,-0.0418,0.3261
0.9445,-0.0408,0.3264
0.9445,-0.041,0.3274
0.9447,-0.0406,0.3286
0.9452,-0.0403,0.3286
0.9455,-0.0408,0.3279
0.9452,-0.041,0.3271
0.9457,-0.0408,0.3269
0.9472,-0.0408,0.3261
0.9486,-0.0406,0.3259
0.9482,-0.0391,0.3259
0.9479,-0.0381,0.3254
0.9482,-0.0381,0.3244
0.9494,-0.0381,0.3225
0.9504,-0.0379,0.3215
0.9516,-0.0374,0.321
0.9518,-0.0369,0.3203
0.9516,-0.0366,0.3203
0.9518,-0.0366,0.3205
0.9526,-0.0366,0.3198
0.9533,-0.0366,0.3196
0.953,-0.0359,0.3205
0.953,-0.0337,0.32
0.9533,-0.0335,0.3203
0.953,-0.0342,0.3205
0.9528,-0.0337,0.3215
0.9523,-0.0335,0.3225
0.9523,-0.034,0.323
0.9521,-0.033,0.323
0.9518,-0.0322,0.3227
0.9516,-0.032,0.3227
0.9508,-0.031,0.3232
0.9506,-0.0308,0.3247
0.9511,-0.0305,0.3259
0.9511,-0.031,0.3259
0.9511,-0.0308,0.3259
0.9501,-0.0305,0.3266
0.9491,-0.03,0.3276
0.9479,-0.0303,0.3276
0.9474,-0.0308,0.3266
0.9484,-0.0313,0.3266
0.9477,-0.031,0.3264
0.9472,-0.0313,0.3266
0.9479,-0.0313,0.3271
0.9474,-0.0313,0.3279
0.9469,-0.0313,0.3281
0.9467,-0.031,0.3274
0.9464,-0.0305,0.3266
0.9457,-0.0305,0.3266
0.9452,-0.0308,0.3271
0.9455,-0.0313,0.3271
0.9457,-0.031,0.3264
0.9462,-0.031,0.3261
0.9469,-0.0303,0.3266
0.9469,-0.03,0.3259
0.9469,-0.0305,0.3259
0.9482,-0.0303,0.3266
0.9486,-0.0298,0.3266
0.9479,-0.03,0.3252
0.9474,-0.03,0.3249
0.9479,-0.0303,0.3249
0.9486,-0.03,0.3249
0.9496,-0.0303,0.3257
0.9496,-0.03,0.3264
0.9496,-0.0293,0.3264
0.9499,-0.0291,0.3257
0.9499,-0.0283,0.3249
0.9506,-0.0283,0.3249
0.9511,-0.0291,0.3257
0.9511,-0.0296,0.3264
0.9518,-0.0291,0.3259
0.9516,-0.0286,0.3247
0.9513,-0.0288,0.3242
0.9516,-0.0298,0.3244
0.953,-0.0298,0.3237
0.954,-0.0293,0.3235
0.953,-0.0296,0.3235
0.9523,-0.0296,0.324
0.9523,-0.0281,0.3242
0.9516,-0.0276,0.3232
0.9504,-0.0276,0.323
0.9504,-0.0279,0.3235
0.9501,-0.0283,0.323
0.9501,-0.0279,0.3227
0.9501,-0.0271,0.3225
0.9491,-0.0266,0.3232
0.9491,-0.0274,0.3242
0.9496,-0.0266,0.3244
0.9499,-0.0261,0.3242
0.9504,-0.0269,0.3237
0.9506,-0.0274,0.3237
0.9511,-0.0269,0.3235
0.9518,-0.0266,0.324
0.9518,-0.0264,0.3247
0.953,-0.0271,0.3244
0.9533,-0.0281,0.3249
0.9538,-0.0286,0.3254
0.9545,-0.0288,0.3259
0.955,-0.0288,0.3264
0.955,-0.0288,0.3264
0.9555,-0.0293,0.3257
0.9562,-0.03,0.3247
0.9562,-0.0305,0.3237
0.956,-0.0313,0.3232
0.956,-0.0318,0.3235
0.9565,-0.0322,0.323
0.9555,-0.0332,0.3227
0.9547,-0.0335,0.3225
0.9545,-0.0335,0.3208
0.954,-0.0332,0.3191
0.9523,-0.034,0.3181
0.9518,-0.0349,0.3176
0.9511,-0.0349,0.3169
0.9501,-0.0349,0.3164
0.9499,-0.0344,0.3159
0.9501,-0.0347,0.3152
0.9499,-0.0352,0.3149
0.9499,-0.0349,0.3159
0.9494,-0.0342,0.3159
0.9484,-0.0335,0.3154
0.9477,-0.0342,0.3152
0.9469,-0.0349,0.3154
0.9469,-0.0352,0.3154
0.9464,-0.0344,0.3156
0.9457,-0.0344,0.3171
0.9452,-0.0344,0.3181
0.9457,-0.034,0.3193
0.9462,-0.0335,0.3208
0.9462,-0.034,0.3222
0.9457,-0.0342,0.3232
0.9462,-0.034,0.3242
0.9479,-0.0335,0.3259
0.9484,-0.034,0.3274
0.9486,-0.0335,0.3286
0.9494,-0.0325,0.3296
0.9501,-0.0322,0.3308
0.9516,-0.0325,0.3323
0.9521,-0.033,0.334
0.9521,-0.033,0.3349
0.9523,-0.0325,0.334
0.9528,-0.0318,0.333
0.953,-0.0318,0.3325
0.9528,-0.032,0.3315
0.953,-0.0318,0.3298
0.9533,-0.0313,0.3281
0.953,-0.031,0.3266
0.9535,-0.031,0.3266
0.954,-0.031,0.3257
0.9538,-0.0315,0.3237
0.9535,-0.0318,0.3232
0.9538,-0.0313,0.3218
0.9533,-0.0313,0.3208
0.9528,-0.032,0.3198
0.9521,-0.0318,0.3191
0.9518,-0.0318,0.3183
0.9513,-0.0322,0.3176
0.9513,-0.0322,0.3171
0.9513,-0.0325,0.3164
0.9511,-0.0335,0.3164
0.9508,-0.0335,0.3166
0.9506,-0.0342,0.3171
0.9508,-0.0347,0.3178
0.9508,-0.0344,0.3186
0.9508,-0.0354,0.3186
0.9508,-0.0362,0.3196
0.9511,-0.0366,0.32
0.9508,-0.0369,0.3198
0.9501,-0.0374,0.3203
0.9508,-0.0369,0.3205
0.9523,-0.0369,0.3208
0.9528,-0.0371,0.321
0.9533,-0.0369,0.3215
0.9533,-0.0369,0.3225
0.9523,-0.0371,0.3222
0.9521,-0.0366,0.3222
0.9523,-0.0359,0.3227
0.9521,-0.0359,0.3227
0.9518,-0.0362,0.3225
0.9518,-0.0359,0.3218
0.9528,-0.0354,0.3208
0.9533,-0.0349,0.3213
0.954,-0.0347,0.3218
0.953,-0.0342,0.3218
0.9518,-0.0327,0.3222
0.9521,-0.0318,0.3222
0.9521,-0.0315,0.3222
0.9516,-0.031,0.3218
0.9513,-0.0305,0.321
0.9508,-0.0308,0.3208
0.9501,-0.0303,0.321
0.9499,-0.03,0.321
0.9491,-0.03,0.3208
0.9489,-0.03,0.321
0.9482,-0.0296,0.322
0.9474,-0.0298,0.3227
0.9472,-0.0298,0.3222
0.9467,-0.0293,0.3225
0.9472,-0.0293,0.3237
0.9479,-0.0293,0.324
0.9474,-0.0296,0.3235
0.9464,-0.0296,0.323
0.9462,-0.0291,0.323
0.9462,-0.0286,0.3232
0.9467,-0.0283,0.3237
0.9467,-0.0288,0.3244
0.9464,-0.0293,0.3247
0.9467,-0.0296,0.3244
0.9467,-0.0298,0.3237
0.9472,-0.03,0.3235
0.9477,-0.0303,0.3242
0.9474,-0.0305,0.3247
0.9479,-0.0303,0.3249
0.9479,-0.0303,0.3249
0.9484,-0.031,0.3249
0.9491,-0.0313,0.3244
0.9489,-0.0305,0.3244
0.9479,-0.0303,0.3244
0.9482,-0.03,0.3244
0.9494,-0.0303,0.3237
0.9499,-0.0308,0.3225
0.9504,-0.0313,0.3215
0.9506,-0.0315,0.3213
0.9504,-0.031,0.3218
0.9501,-0.0305,0.3203
0.9496,-0.0305,0.3196
0.9506,-0.0303,0.3186
0.9513,-0.0305,0.3176
0.9516,-0.0315,0.3174
0.9523,-0.0318,0.3178
0.9538,-0.0315,0.3186
0.9545,-0.0318,0.3181
0.955,-0.0318,0.3176
0.9562,-0.031,0.3178
0.9572,-0.0313,0.3171
0.9579,-0.0315,0.3171
0.9584,-0.032,0.3186
0.9591,-0.0322,0.3196
0.9601,-0.0325,0.3208
0.9616,-0.0322,0.3205
0.9618,-0.0325,0.3203
0.9611,-0.033,0.3215
0.9609,-0.0332,0.3208
0.9616,-0.0332,0.3205
0.9618,-0.0332,0.321
0.9609,-0.0337,0.3213
0.9606,-0.0335,0.3208
0.9604,-0.0327,0.32
0.9604,-0.0325,0.3198
0.9594,-0.0325,0.3191
0.9589,-0.0327,0.3188
0.9587,-0.032,0.3181
0.9582,-0.0315,0.3174
0.9565,-0.0318,0.3166
0.9555,-0.031,0.3152
0.955,-0.0313,0.3147
0.955,-0.0313,0.3156
0.9555,-0.0315,0.3159
0.9557,-0.032,0.3159
0.9565,-0.032,0.3154
0.9565,-0.0315,0.3152
0.955,-0.0318,0.3154
0.9545,-0.0318,0.3171
0.9535,-0.0305,0.3186
0.9528,-0.0313,0.3188
0.953,-0.0313,0.3193
0.9523,-0.0315,0.3196
0.9523,-0.0325,0.3196
0.9521,-0.0335,0.3191
0.9518,-0.033,0.3188
0.9508,-0.0325,0.3198
0.9501,-0.0325,0.3208
0.9496,-0.032,0.3208
0.9486,-0.0322,0.321
0.9486,-0.032,0.3213
0.9494,-0.0325,0.3213
0.9496,-0.0322,0.321
0.9491,-0.032,0.321
0.9479,-0.0322,0.3215
0.9474,-0.0322,0.322
0.9472,-0.0318,0.322
0.9467,-0.0318,0.3225
0.9467,-0.0315,0.3235
0.9469,-0.0318,0.3237
0.9472,-0.032,0.3237
0.9469,-0.0318,0.3232
0.9464,-0.0318,0.324
0.946,-0.0315,0.3249
0.9455,-0.0313,0.3252
0.9455,-0.0313,0.3261
0.9452,-0.0313,0.3261
0.9452,-0.0318,0.3257
0.9457,-0.0318,0.3254
0.946,-0.0318,0.3259
0.9455,-0.0318,0.3264
0.9455,-0.0315,0.3264
0.9455,-0.0313,0.3261
0.946,-0.031,0.3271
0.946,-0.0305,0.3269
0.9457,-0.03,0.3269
0.9464,-0.0308,0.3266
0.9467,-0.0313,0.3264
0.9467,-0.031,0.3259
0.9467,-0.031,0.3266
0.9469,-0.0313,0.3264
0.9479,-0.031,0.3257
