accx,accy,accz
1.3185,0.2638,0.2136
1.0268,0.1187,0.005
0.8734,0.04,-0.0068
0.7625,-0.0289,0.1296
0.6374,-0.0665,0.219
0.5127,-0.0797,0.1706
0.4766,-0.0382,0.0636
0.5489,0.0136,-0.0507
0.7243,0.1157,0.0035
0.8357,0.1353,0.0646
0.8347,0.1582,0.1174
0.739,0.1646,0.156
0.6198,0.1094,0.1853
0.5948,0.0566,0.2263
0.6882,0.1397,0.2469
0.7688,0.2902,0.2766
0.7918,0.3214,0.1691
0.8529,0.255,-0.0844
1.0258,0.2335,-0.297
1.2745,0.0952,-0.4802
1.468,-0.2463,-0.5921
1.4778,-0.4203,-0.4314
1.3673,-0.517,-0.1245
1.3439,-0.0968,0.2473
1.6,0.2501,0.2928
1.6639,0.4094,0.0074
1.7436,0.3855,-0.0683
1.3918,0.0786,0.0455
1.0723,-0.1369,0.2845
0.8469,-0.2434,0.3294
0.7272,-0.2487,0.2033
0.6334,-0.1383,0.0016
0.6418,-0.0049,-0.1724
0.7058,0.0923,-0.1005
0.6481,0.1006,0.0553
0.6643,0.0718,0.1906
0.5934,0.0224,0.1477
0.5079,-0.0499,0.0695
0.4454,-0.1618,0.0783
0.502,-0.2928,0.2439
0.6696,-0.2976,0.3319
0.9051,-0.2214,0.1721
1.1304,-0.1779,-0.2428
1.5926,-0.1525,-0.6698
1.7651,-0.0523,-0.7749
2.0856,0.1622,-0.4807
1.8105,0.4021,-0.4275
1.3698,0.4617,-0.3791
1.4441,0.3782,0.0094
1.641,0.3146,0.5347
1.4162,0.4436,0.4321
1.1294,0.3913,-0.0444
0.9291,0.1661,-0.1123
0.7419,-0.0259,0.2986
0.6423,-0.1608,0.4477
0.568,-0.2199,0.2278
0.568,-0.0934,-0.0703
0.5509,-0.0225,-0.146
0.6535,-0.0123,0.1721
0.7659,0.0434,0.4086
0.8866,0.1172,0.3103
0.954,0.1514,0.1408
0.8773,0.191,0.2293
0.8303,0.2188,0.455
0.8137,0.1617,0.5332
0.8553,0.0488,0.2893
1.0674,-0.1159,0.0841
1.2012,-0.0118,0.091
1.2716,0.1109,0.1555
1.0859,0.1323,0.1447
1.1543,0.063,-0.1885
1.1895,-0.1403,-0.447
1.4558,-0.3152,-0.6224
1.6991,-0.4671,-0.4304
1.8159,-0.5854,-0.1216
1.4187,-0.0846,0.0494
1.0014,-0.0005,-0.0605
0.9643,0.0679,-0.1323
1.0635,0.234,-0.3077
1.0757,0.1157,-0.2955
1.169,-0.1945,0.1335
1.2711,-0.3841,0.3978
1.1235,-0.3108,0.1999
1.1538,-0.197,-0.1084
1.0723,-0.13,-0.2179
1.0077,-0.0753,-0.0551
0.9755,-0.0093,0.089
0.9217,0.0532,-0.0063
0.8841,0.0698,-0.104
0.9051,0.0899,-0.08
0.9002,0.0757,-0.0038
0.781,0.0087,-0.0224
0.5983,-0.0573,-0.0805
0.4976,-0.0734,0.0143
0.6329,-0.0851,0.1481
0.7551,-0.1554,0.1184
0.6843,-0.1999,0.0138
0.6765,-0.1339,0.1809
0.9207,-0.0797,0.4154
1.2936,-0.1154,0.5371
1.4309,-0.1051,0.4071
1.2408,-0.11,0.4149
1.1211,-0.1183,0.5762
1.2545,-0.2312,0.3534
1.3864,-0.2053,0.0724
1.3209,-0.0597,-0.0649
1.1255,-0.087,-0.0581
0.782,-0.0636,-0.081
0.4966,-0.0768,-0.4431
0.675,-0.2024,-0.8931
0.8695,-0.4686,-0.8985
1.2506,-0.2805,-0.5139
1.4709,-0.1188,0.1931
1.6952,0.0689,0.1872
1.6337,-0.1594,-0.2574
1.1832,-0.344,-0.2188
0.9002,-0.2908,-0.1699
0.8015,-0.1383,-0.3102
0.9755,-0.0176,-0.2135
1.0405,-0.13,0.1096
1.3141,-0.2263,0.2869
1.2642,-0.2126,-0.0185
1.1587,-0.0988,-0.338
1.0561,-0.0074,-0.3468
0.952,-0.0089,-0.0747
0.8162,-0.07,0.0914
0.7399,-0.1774,0.0617
0.7708,-0.2796,-0.0566
0.9027,-0.2678,-0.1284
0.9584,-0.1525,-0.0932
0.9037,-0.0851,-0.0014
0.8568,-0.0758,0.0504
0.7703,-0.0641,0.0626
0.6789,-0.0641,0.0934
0.6442,-0.0875,0.1545
0.673,-0.1041,0.2273
0.6726,-0.1393,0.2547
0.6721,-0.1648,0.2293
0.7449,-0.1833,0.1828
0.655,-0.1354,0.1169
0.3637,-0.0059,0.1726
0.3153,0.1025,0.2913
0.6281,0.1421,0.1208
0.7014,0.2462,-0.0927
0.7981,0.3967,0.0358
0.8617,0.3068,0.218
1.0801,0.2325,-0.2041
1.683,-0.0499,-1.0861
2.156,-0.0919,-1.6797
2.9163,-0.2194,-1.2777
3.1688,-0.6343,0.4027
1.8667,-0.5663,0.7511
1.4826,-0.2923,0.3011
0.9535,-0.1848,-0.0571
0.2328,0.0195,-0.1416
0.4781,0.3889,-0.2823
1.0365,0.5604,-0.5178
1.4089,0.4231,-0.2652
1.3478,-0.0401,0.1276
1.0845,-0.2243,0.2171
0.8333,-0.2967,0.0485
0.7038,-0.1941,-0.0781
0.6613,-0.0479,-0.1348
0.5612,0.1055,-0.1025
0.4581,0.1803,-0.0078
0.3681,0.2135,0.0538
0.4424,0.1847,0.045
0.6085,0.084,-0.0527
0.8773,-0.0035,-0.0615
0.9692,-0.0445,-0.0053
0.9046,-0.0748,0.1994
0.7761,-0.0988,0.3861
0.7424,-0.1217,0.3495
0.7683,-0.131,0.1916
0.8338,-0.1134,0.1481
0.93,-0.0983,0.1525
1.0762,-0.0973,-0.1064
1.2603,-0.0719,-0.4299
1.4148,-0.044,-0.6165
1.7011,-0.0455,-0.4118
2.0519,0.2017,-0.2154
1.8716,0.4944,-0.2041
1.6317,0.6014,-0.0815
1.4763,0.5272,0.175
1.2931,0.2863,0.3587
1.1191,0.1328,0.2586
1.1465,0.0693,-0.0082
1.1128,0.0601,-0.125
1.0195,0.1094,0.0187
0.8269,0.1055,0.1071
0.845,0.0635,0.0651
0.759,-0.0279,-0.019
0.654,-0.0734,-0.0029
0.5294,-0.0875,0.1286
0.4869,-0.069,0.2205
0.5685,0.0131,0.1467
0.5309,0.0874,0.0944
0.4322,0.1221,0.1164
0.4204,0.0845,0.1452
0.3618,0.0762,0.0914
0.3252,0.1587,0.0841
0.3955,0.212,0.0817
0.5846,0.1543,0.1828
0.975,0.1734,0.219
1.4519,0.3087,0.047
1.8306,0.2589,-0.3273
2.2776,0.2804,-0.5002
2.3392,0.106,-0.447
1.4934,-0.1427,-0.2413
1.0566,-0.1217,0.1418
0.8279,-0.3494,0.4662
1.1196,-0.3895,0.6973
1.5467,-0.0518,0.2737
1.746,0.1851,-0.2843
1.6004,0.2384,-0.4176
1.2198,0.2096,-0.0078
0.9408,0.106,0.3558
0.6975,0.0121,0.2742
0.5914,-0.0196,-0.0273
0.6119,0.0429,-0.2291
0.5167,0.124,-0.1787
0.5343,0.1192,0.0241
0.4849,0.0752,0.177
0.5035,0.0258,0.2239
0.522,-0.0582,0.1604
0.5416,-0.1412,0.045
0.4976,-0.1266,0.0314
0.5968,-0.0807,0.1232
0.7688,-0.0621,0.2566
0.868,-0.0259,0.262
1.0214,-0.0577,-0.0043
1.424,-0.0646,-0.3517
1.6346,0.0327,-0.5711
1.876,0.2472,-0.4235
1.8916,0.5868,-0.3361
1.6488,0.5721,-0.1089
1.3444,0.5106,0.196
1.3204,0.3,0.4125
1.513,0.1998,0.3118
1.532,0.1763,0.0534
1.2247,0.125,-0.059
1.0043,0.1406,0.0504
0.7087,0.1593,0.1662
0.694,0.1778,0.1511
0.6144,0.104,0.0377
0.5289,0.0361,-0.0082
0.4493,-0.0323,0.0143
0.5641,-0.0597,0.1447
0.6564,0.0014,0.1892
0.6408,0.0772,0.1535
0.6002,0.1416,0.1345
0.6154,0.1367,0.1506
0.6682,0.1563,0.1594
0.7512,0.2423,0.1975
0.8954,0.3332,0.1657
1.1631,0.3083,0.0704
1.2208,0.2814,-0.0957
1.2838,0.2579,-0.1607
1.2305,0.0737,-0.2213
1.2432,-0.1608,-0.255
1.339,-0.3177,-0.294
1.2877,-0.2845,0.0045
1.3454,-0.0958,0.3001
1.7587,-0.0342,0.2683
1.8525,0.1314,0.1984
1.4089,0.2467,0.1164
1.0424,0.2853,0.0612
0.8519,0.2091,0.1613
0.7121,0.0796,0.2239
0.6472,-0.0558,0.1002
0.588,-0.0939,-0.0483
0.589,-0.0729,-0.0546
0.6745,0.0048,0.0856
0.6501,0.106,0.1711
0.4927,0.1528,0.0739
0.4283,0.0947,-0.0302
0.6066,0.0048,0.0216
0.546,-0.1662,0.0905
0.6334,-0.1222,0.2488
0.8235,-0.0523,0.1911
1.0092,0.0429,-0.038
1.4514,0.1177,-0.3302
1.8428,0.0601,-0.4294
2.1667,0.1568,-0.1699
2.2698,0.3581,-0.0903
1.9825,0.4861,-0.1778
1.8237,0.599,-0.06
1.6004,0.5062,0.2688
1.2418,0.3278,0.3094
0.9955,0.1211,0.1438
0.7996,-0.0093,0.0182
0.5797,-0.1687,0.1036
0.4209,-0.2092,0.1955
0.4116,-0.0294,0.1188
0.4717,0.1211,-0.0297
0.4434,0.1715,-0.0112
0.4844,0.1715,0.1257
0.6315,0.1641,0.2053
0.7674,0.1367,0.153
0.849,0.082,0.1105
0.8568,0.0601,0.1257
0.8411,0.1406,0.2381
0.7952,0.2188,0.3841
0.8382,0.2335,0.3944
0.9701,0.255,0.2176
1.04,0.2672,-0.0922
0.9652,0.1671,-0.3698
1.0815,-0.0528,-0.4001
1.2652,-0.2097,-0.3111
1.5975,-0.3426,-0.1235
1.662,-0.1691,-0.1148
1.6424,0.148,0.0026
1.6673,0.2995,0.1809
1.4377,0.32,0.2473
1.3497,0.2668,0.2483
1.19,0.1055,0.1696
0.9648,-0.1002,0.176
0.6686,-0.1442,0.1472
0.5001,-0.0914,0.0524
0.5162,0.0297,0.0099
0.6158,0.1739,-0.0366
0.6041,0.2682,-0.0473
0.4795,0.2603,0.0548
0.4062,0.0351,0.1657
0.3114,-0.2312,0.132
0.3301,-0.1945,-0.0165
0.1375,-0.2136,-0.0864
0.4253,0.0444,-0.0664
0.7571,0.1314,-0.3957
1.3131,0.0693,-0.6752
2.0656,0.0385,-0.2877
2.7902,0.2193,-0.0668
3.248,0.6185,0.0929
2.2605,0.7583,-0.2359
1.4778,0.427,-0.0815
1.062,0.2633,0.5332
1.0033,0.146,0.5889
1.0024,0.0053,0.1716
0.8479,-0.1168,-0.2296
0.5372,-0.1735,-0.0742
0.2406,-0.2155,0.2986
0.2039,-0.1765,0.5175
0.3594,-0.1046,0.3221
0.3994,-0.0162,-0.0683
0.4498,0.1065,-0.2027
0.608,0.2863,-0.1162
0.6579,0.4109,-0.0986
0.6374,0.2731,-0.1318
0.7688,0.0331,0.0367
1.0747,-0.0914,-0.0073
1.4367,-0.0949,-0.4934
1.6796,-0.1178,-0.7265
1.6708,-0.1027,-0.3547
1.9072,0.1402,0.5097
2.1316,0.1436,0.6299
2.2713,0.0801,0.089
2.1286,-0.1412,-0.1802
1.769,-0.1955,-0.0097
1.3439,-0.2238,0.2508
0.9203,-0.0573,0.3734
0.656,-0.0108,0.177
0.5176,0.0625,-0.0683
0.4209,0.1612,-0.1587
0.3325,0.2013,-0.0327
0.1776,0.1201,0.1545
0.1932,-0.0206,0.1745
0.2626,-0.1246,0.1569
0.3906,-0.2273,0.3113
0.4913,-0.2546,0.4428
0.7444,-0.2282,0.3641
0.996,-0.2102,0.1564
1.1265,-0.3367,0.0792
1.1626,-0.579,0.3236
1.0258,-0.6885,0.4682
0.8098,-0.5453,-0.1392
1.1113,-0.2624,-1.1266
1.6014,-0.0763,-1.5005
2.0089,0.2476,-1.1564
2.0832,0.8018,-0.0795
1.385,0.4343,0.0631
1.19,-0.0338,-0.0527
1.0263,-0.4169,-0.0629
0.8524,-0.8415,0.028
1.1055,-1.0125,0.0011
1.4881,-0.6021,-0.3097
1.768,-0.1422,-0.3991
1.8775,0.3224,-0.5906
1.6332,0.4143,-0.3551
1.2608,0.0835,-0.0502
0.9799,-0.1041,-0.0331
0.5651,-0.2404,-0.1392
0.1995,-0.2703,-0.1421
0.4532,-0.1452,0.1525
0.9007,-0.131,0.3118
0.9505,-0.1315,0.1125
1.0038,-0.0773,-0.1192
1.0962,-0.0518,-0.1939
1.1089,-0.0861,0.0333
1.0952,-0.1246,0.3059
1.103,-0.0993,0.4487
1.0429,-0.0607,0.3861
0.995,-0.0963,0.2307
0.9076,-0.132,0.2107
0.7551,-0.1041,0.2669
1.5389,0.1558,6.0325
0.5704,-0.4022,-0.0263
0.8484,-0.0836,-1.7076
0.9461,-0.0773,-0.1983
0.9237,0.1035,0.7692
1.0361,-0.0949,0.6495
1.0009,-0.2536,-0.2354
1.1734,-0.1814,-1.0006
1.5013,-0.1286,-0.8427
1.2828,-0.0543,-0.4822
1.0321,0.0737,-0.1792
1.0058,0.17,-0.0717
1.0893,0.0757,-0.1499
1.2706,-0.13,-0.2491
1.2745,-0.325,-0.233
1.1861,-0.3611,-0.1025
1.0234,-0.2703,-0.0292
0.8993,-0.1447,-0.0839
0.8235,-0.0675,-0.187
0.803,-0.0132,-0.2374
0.8308,-0.0089,-0.1988
0.9198,-0.0587,-0.1577
0.9892,-0.0753,-0.103
1.0214,-0.0367,-0.1005
0.9921,0.038,-0.0917
0.9648,0.105,-0.0424
0.956,0.1221,-0.0019
0.9188,0.0669,0.0114
0.8773,0.0141,-0.0209
0.7639,-0.0308,-0.0668
0.61,-0.0504,-0.038
0.4072,-0.0577,0.1052
0.2978,-0.0602,0.3157
0.3261,-0.0709,0.305
0.2768,-0.0758,0.048
0.2025,0.0097,-0.1143
0.3979,0.1768,0.0446
0.6823,0.1499,0.2072
0.8186,0.0532,0.2537
0.8045,0.1162,0.0514
1.0492,-0.1124,-0.214
1.4915,-0.1926,-0.4509
2.1198,-0.1559,-0.723
2.7521,-0.0416,-0.6727
2.887,0.5399,-0.3844
2.3084,0.8272,-0.5276
1.4851,1.0563,-0.2789
1.2051,0.8687,0.174
1.233,0.4631,0.3343
1.1695,0.0581,0.1052
0.89,-0.1452,0.0133
0.5646,-0.1862,0.1046
0.4283,-0.2801,0.2566
0.3725,-0.2976,0.3202
0.6344,-0.0968,0.2395
0.6945,0.039,0.004
0.656,0.1338,-0.1358
0.5865,0.2091,-0.0859
0.5861,0.2481,0.067
0.5905,0.2413,0.218
0.5841,0.1294,0.2698
0.7009,0.0146,0.2708
0.7971,-0.0137,0.2527
0.8137,0.0762,0.2678
0.7903,0.2135,0.3578
0.8308,0.3791,0.35
0.909,0.4626,0.0387
1.1157,0.386,-0.403
1.3507,0.1763,-0.6537
1.7314,0.0606,-0.5115
1.962,-0.0328,-0.3258
1.9898,0.0102,-0.276
1.5232,-0.1544,-0.0327
1.4411,-0.2024,0.5268
1.4553,-0.1984,0.5908
1.3977,-0.0597,0.2766
1.3473,0.0684,-0.127
1.2115,0.1768,-0.2594
1.0004,0.212,-0.0742
0.7947,0.2042,0.1232
0.7248,0.1803,0.1789
0.6071,0.1255,0.0704
0.46,0.0889,-0.0805
0.2865,0.0586,-0.1631
0.1575,0.0395,-0.0854
0.1951,0.0229,0.0558
0.2044,0.0126,0.09
0.1776,-0.0318,0.0729
0.3623,-0.0924,0.0914
0.501,-0.1032,0.1046
0.6334,-0.0357,0.1731
0.7503,0.0405,0.3172
1.0351,0.0346,0.3412
1.5535,0.0336,-0.1187
1.9244,0.0034,-0.7196
2.3456,0.1895,-0.7485
2.6172,0.6473,-0.1187
1.8213,0.8423,-0.0068
1.5486,0.6239,-0.0126
1.4118,0.4241,0.219
1.4133,0.2579,0.3392
