accx,accy,accz
0.9933,-0.0672,0.3848
0.9403,-0.0318,0.0848
0.8597,-0.0044,-0.0012
0.6398,-0.0203,0.0606
0.4046,-0.0542,0.1774
0.2653,-0.1383,0.2643
0.5174,-0.1109,0.3396
0.7217,-0.0247,0.2409
0.6508,0.002,0.0396
0.71,0.0591,-0.0486
0.7322,0.0772,0.1329
0.7285,0.0606,0.3875
0.675,0.0237,0.2531
0.6843,-0.002,0.0
0.8214,0.0037,0.1143
0.8582,-0.0586,0.3843
0.996,-0.0672,0.4727
1.2789,-0.0691,0.1637
1.3955,-0.1937,-0.3799
1.5362,-0.191,-0.5563
1.9564,-0.267,-0.1331
2.2987,-0.2834,0.4608
1.3373,-0.2981,0.4708
1.19,-0.0989,0.4996
1.19,-0.0327,0.5182
1.2086,-0.0623,0.1678
1.0425,-0.0457,-0.086
0.8724,0.0227,-0.0122
0.6853,0.0804,0.1947
0.5915,0.1021,0.2125
0.4911,0.0034,0.0611
0.4068,-0.1847,0.0222
0.4827,-0.2643,0.2108
0.4981,-0.2602,0.352
0.5257,-0.2216,0.2966
0.6078,-0.0931,0.0022
0.6836,0.0122,-0.0862
0.7691,-0.0029,0.2744
0.8778,-0.1092,0.4962
0.9579,-0.2411,0.2238
1.0632,-0.3083,-0.1375
1.3139,-0.1493,-0.1691
1.5452,0.0142,-0.1327
1.8494,0.1686,0.0699
2.0165,0.0792,0.1771
1.7228,-0.1182,0.2091
1.6542,-0.1634,0.3149
1.4842,-0.1378,0.2492
1.3549,-0.1138,0.3623
1.1172,-0.0735,0.2103
0.9381,-0.032,0.042
0.7356,-0.0034,0.0518
0.602,0.011,0.1226
0.4942,-0.0027,0.1737
0.4192,-0.0452,0.1991
0.3711,-0.0958,0.1901
0.3552,-0.1229,0.1175
0.4808,-0.0706,0.1014
0.5673,-0.0217,0.1248
0.6657,0.0413,0.1021
0.76,0.1371,0.1852
0.838,0.235,0.1813
0.7635,0.2047,0.0406
0.7554,0.0872,0.1485
1.0107,-0.0159,0.4161
1.3796,-0.12,0.1945
1.5521,-0.3193,-0.2328
1.7453,-0.2822,-0.1568
1.7507,-0.4273,0.3147
1.8538,-0.4339,0.6953
1.4419,-0.1395,0.4806
1.3456,-0.0032,0.2824
1.5286,-0.0787,0.5262
1.4903,-0.268,0.3516
1.2108,-0.2695,0.1471
0.9052,-0.1466,0.0669
0.655,-0.0413,0.1151
0.4395,-0.0159,0.1737
0.3186,-0.0484,0.1957
0.2731,-0.1652,0.1967
0.3902,-0.2834,0.1336
0.6337,-0.2414,0.1124
0.7246,-0.2358,0.1415
0.8025,-0.2631,0.2634
0.8695,-0.3232,0.3452
0.9198,-0.32,0.398
0.8311,-0.2333,0.3406
0.9225,-0.116,0.5045
1.0341,-0.1351,0.5646
1.0776,-0.1407,0.7107
1.0197,-0.1566,0.4422
1.0212,-0.3098,0.2951
1.17,-0.5218,0.1925
1.3764,-0.6183,0.1075
1.5135,-0.3445,-0.0823
1.3447,-0.138,-0.5453
1.7421,-0.194,-0.7747
2.3837,-0.1761,-0.2758
1.4729,-0.5558,0.0933
0.9408,-0.6135,0.2656
0.763,-0.4639,0.2272
0.9093,-0.4185,-0.0706
0.9425,-0.4527,-0.2692
0.9342,-0.4175,-0.2966
0.9504,-0.234,-0.2155
0.9963,0.0557,-0.235
0.9157,0.1845,-0.2941
0.7078,0.0442,-0.1363
0.8541,-0.1197,-0.0166
0.9618,-0.2201,0.0699
0.9677,-0.2047,0.0354
1.1111,0.0823,-0.0452
1.1717,0.4312,-0.0718
1.2799,0.7505,0.0533
1.0156,0.6753,0.2147
0.7493,0.2739,0.1542
0.6684,-0.054,0.2169
0.5937,-0.3862,0.4835
0.5988,-0.6623,0.7285
0.7424,-0.655,0.6325
0.9401,-0.4165,0.3745
1.031,-0.3528,0.6064
1.1783,-0.3684,0.7818
1.1492,-0.3701,0.4393
1.2447,-0.2436,0.0792
1.2618,-0.195,0.5204
1.0415,-0.2433,0.9699
1.105,-0.3086,0.3604
1.4397,-0.3987,-0.375
1.897,-0.159,-0.5656
1.4482,-0.3596,-0.3972
0.8419,-0.8109,0.5944
0.6122,-0.8255,0.4937
0.6806,-0.526,0.0249
0.9816,-0.2253,-0.042
1.0214,-0.2231,-0.052
0.9281,-0.2988,0.2108
0.8411,-0.3034,0.506
0.8248,-0.2883,0.4246
0.8763,-0.2817,0.1405
0.9726,-0.247,-0.0156
0.996,-0.1986,-0.0066
0.9227,-0.1884,0.0682
0.825,-0.1776,0.1578
0.7732,-0.1202,0.1935
0.8372,-0.0733,0.2064
0.8629,-0.1004,0.1576
0.8783,-0.1781,0.0985
0.8113,-0.1969,0.0833
0.6135,-0.1248,0.1002
0.548,-0.0274,0.183
0.623,0.0533,0.2055
0.6994,0.0669,0.0767
0.7075,0.0523,0.0034
0.7713,0.0056,0.3012
0.7996,-0.0889,0.686
0.7832,-0.1371,0.5194
0.8001,-0.1209,0.2807
0.8091,-0.1608,0.5079
0.7346,-0.2863,0.7097
0.6462,-0.2099,0.5719
0.6105,-0.022,0.1776
0.5783,-0.0034,-0.2902
0.8199,-0.1314,-0.6633
1.1617,-0.3638,-0.6797
1.5132,-0.5436,-0.7593
2.1374,-0.6687,-0.7476
3.3959,-0.2734,0.2274
3.0553,0.4009,0.8578
1.4854,0.0222,0.4371
1.3329,-0.1051,0.2897
1.2452,-0.246,0.2213
1.0239,-0.2797,0.5907
0.7918,-0.3494,0.6242
0.6059,-0.429,0.5108
0.2687,-0.4275,0.2631
-0.1466,-0.323,0.0044
-0.2915,-0.0867,-0.0938
-0.0369,0.1854,0.1307
0.4793,0.2509,0.2641
0.5006,0.1732,0.1825
0.5157,0.0501,0.1488
0.5707,0.0103,0.1434
0.6291,0.0078,0.2741
0.5749,-0.0853,0.5204
0.6779,-0.1698,0.4214
0.8585,-0.1397,0.1378
0.9572,-0.2086,-0.3369
1.2225,-0.4207,-0.816
1.9373,-0.5673,-0.8433
3.2532,-0.8231,-0.1351
2.6967,-0.3931,1.3808
0.9946,-0.5113,1.1971
1.3195,-0.3743,0.5502
1.5687,-0.2416,-0.0083
1.4216,-0.1258,-0.2441
1.139,-0.0743,-0.066
0.8492,-0.0528,0.2548
0.6332,-0.0188,0.3767
0.5428,0.0112,0.2287
0.4405,0.055,0.009
0.3354,0.0911,-0.1622
0.1781,0.0752,-0.1593
-0.0344,-0.0481,0.0418
0.1336,-0.1209,0.2678
0.545,-0.1011,0.2316
0.7131,-0.1075,0.1185
0.8253,-0.1197,0.0884
0.9225,-0.1561,0.2338
0.7898,-0.2111,0.0496
0.8824,-0.1297,-0.2595
1.1412,-0.1031,-0.4051
1.8247,-0.1637,-0.2328
2.681,-0.1703,0.3816
3.4073,0.0193,0.8959
2.0209,-0.1134,0.0291
1.3163,-0.2209,-0.0046
1.0483,-0.2253,0.3242
0.8893,-0.1219,0.474
0.8157,-0.0689,0.385
0.7026,-0.0877,0.226
0.5287,-0.0865,0.1224
0.2829,-0.1287,0.0916
0.0313,-0.2086,0.1468
-0.2651,-0.311,0.2509
0.0589,-0.1554,0.3936
0.5299,0.0748,0.1832
0.6034,0.1175,-0.1578
0.7153,0.1779,-0.1688
0.8106,0.1691,0.1031
0.8868,0.0691,0.1366
1.0092,-0.1041,-0.3061
1.3024,-0.3127,-0.5736
1.7749,-0.4117,-0.4053
2.7265,-0.5406,0.1559
2.8298,-0.1273,0.954
1.296,-0.3347,1.0784
1.3495,-0.2514,0.9687
1.4126,-0.119,0.1346
1.3351,-0.0022,-0.3938
1.0339,0.0122,-0.3042
0.7576,-0.0161,0.1173
0.624,-0.073,0.4239
0.6076,-0.1241,0.3596
0.6645,-0.1014,0.1148
0.5035,-0.0489,-0.0498
0.28,-0.0237,-0.1204
0.0154,-0.0501,-0.0186
0.1559,-0.1029,0.1073
0.5814,-0.0564,0.2011
0.7095,-0.0738,0.2243
0.8074,-0.0691,0.331
0.8429,-0.1029,0.2042
0.8595,-0.1556,-0.1793
1.0141,-0.1893,-0.4156
1.4285,-0.2028,-0.2827
2.0649,-0.1368,0.0865
2.9353,-0.0362,0.6787
3.0707,0.2177,0.8524
1.6625,-0.2116,-0.0386
1.0706,-0.2128,-0.0498
0.7505,-0.1791,0.2079
0.5797,-0.15,0.3884
0.4847,-0.127,0.4483
0.449,-0.0994,0.3731
0.4603,-0.0506,0.1612
0.4283,-0.0076,-0.0213
0.2617,-0.02,-0.0853
0.0569,-0.0371,0.0293
0.558,0.1488,0.1969
0.5565,0.0811,0.0024
0.6213,-0.0142,-0.0782
0.8223,0.0156,0.2314
0.7757,0.0425,0.1471
0.7141,-0.0073,-0.195
0.9049,-0.0843,-0.4813
1.243,-0.2414,-0.4808
1.8365,-0.3821,-0.4529
2.8384,-0.3963,0.0034
2.7189,-0.1444,0.6523
1.072,-0.4766,0.8946
1.0537,-0.4222,1.0576
1.5044,-0.2133,0.4979
1.5184,-0.1305,-0.2257
1.2833,-0.0794,-0.428
0.9362,-0.0198,-0.1937
0.4503,0.0147,0.1749
0.0213,0.0217,0.4544
0.2477,0.0789,0.3972
0.6149,0.0579,0.1253
0.5409,-0.0872,-0.0858
0.5558,-0.1256,-0.1241
0.547,-0.0611,0.0823
0.5245,-0.009,0.2345
0.4857,-0.0589,-0.0503
0.6401,-0.139,-0.2846
0.9318,-0.2213,-0.2937
1.3769,-0.2685,0.0208
1.9532,-0.2314,0.5817
2.2137,-0.0718,0.6584
2.232,0.173,0.1632
2.1132,0.2902,-0.2091
1.5682,-0.1261,-0.0293
1.3803,-0.2582,0.5477
1.1634,-0.2626,0.4889
0.9948,-0.1598,0.2609
0.7454,-0.0953,0.1903
0.5238,-0.0596,0.1459
0.3083,-0.0454,0.1493
0.1251,-0.0667,0.1928
0.0562,-0.0767,0.1808
0.1698,-0.0227,0.043
0.4339,0.0901,-0.064
0.5617,0.1654,0.0103
0.7459,0.1932,0.1331
0.8363,0.1346,0.0327
0.8656,0.0691,0.0127
0.7857,-0.0105,0.2213
0.9689,-0.0574,0.097
1.2587,-0.2052,-0.3037
1.4949,-0.385,-0.5556
2.0282,-0.4038,-0.1395
2.7875,-0.4884,0.5494
2.4472,-0.1964,0.7874
1.0999,-0.3679,0.484
1.2188,-0.1373,0.4691
1.3066,-0.0322,0.2108
1.2125,0.0235,-0.0735
1.0349,0.0574,-0.2162
0.7996,0.0098,-0.1261
0.6149,-0.0403,-0.0081
0.4016,-0.0628,0.0943
0.1952,-0.0919,0.1867
0.15,-0.1556,0.203
0.4278,-0.2174,0.1583
0.5917,-0.3283,0.1195
0.6975,-0.3579,0.1522
0.709,-0.2993,0.31
0.7002,-0.2387,0.4263
0.7727,-0.2543,0.546
0.9711,-0.2543,0.5455
1.1099,-0.1422,0.3332
1.1617,0.0024,0.0508
1.0136,-0.0806,-0.1903
1.2362,-0.0667,-0.0322
1.4761,-0.1085,-0.0249
1.9122,-0.2736,-0.2985
2.5769,-0.2443,-0.2692
2.4597,0.3941,0.2314
1.1746,-0.0093,0.0083
0.7434,-0.2438,0.4107
0.7124,-0.3266,0.4292
0.824,-0.3354,0.0352
0.7681,-0.2802,-0.248
0.9687,-0.0547,-0.1512
0.9376,0.0147,0.0992
0.7268,-0.0535,0.1747
0.7661,-0.0235,-0.1195
0.8619,-0.012,-0.1903
0.9181,0.0261,0.1493
0.9008,0.0848,0.2812
0.9127,0.009,0.1302
0.9875,-0.1266,0.2983
0.998,-0.259,0.4398
1.0061,-0.2563,0.3696
0.8817,-0.2902,0.2834
0.8101,-0.2983,0.2277
0.738,-0.31,0.1915
0.782,-0.3562,0.3418
0.7424,-0.417,0.4947
0.6953,-0.4033,0.4683
0.6897,-0.238,0.3237
0.7891,0.0081,0.2121
0.9071,0.194,0.2497
0.7977,0.1954,0.2399
0.7048,0.1239,0.1187
0.6596,-0.0046,0.2345
0.8174,-0.3528,0.3657
1.33,-0.7302,0.0406
1.6481,-0.988,-0.3257
1.7727,-1.3554,-0.493
1.6855,-1.3254,-0.0711
1.1597,-0.7962,0.8851
0.8722,-0.5775,1.2462
1.1419,-0.4615,0.4867
1.4153,-0.4268,-0.1153
1.3251,-0.3921,0.0401
0.8194,-0.4678,0.3518
0.5365,-0.5013,0.514
0.4114,-0.4576,0.3894
0.5126,-0.3428,0.2143
0.4187,-0.2861,0.1051
0.5111,-0.2255,0.1309
0.8783,-0.1854,0.2653
0.9516,-0.363,0.3171
0.9721,-0.5697,0.2863
1.0603,-0.6318,0.3572
1.1805,-0.4639,0.481
1.1138,-0.4796,0.3992
0.9819,-0.526,0.4798
0.9728,-0.5206,0.9982
1.0087,-0.4945,0.6848
1.1903,-0.8705,0.0814
1.3344,-1.0305,-0.2348
1.3911,-0.9816,-0.5597
1.2645,-0.5976,-0.5687
1.117,-0.4683,0.0713
0.8429,-0.4603,0.7605
0.6907,-0.4881,0.354
0.8666,-0.4036,-0.1454
1.0395,-0.3171,-0.3335
1.1846,-0.321,-0.0396
1.2548,-0.2827,0.3332
0.9907,-0.2035,0.2607
0.742,-0.0738,-0.0254
0.6325,-0.0032,-0.0274
0.6352,0.0115,0.0906
0.7544,0.0137,0.0682
0.7852,0.0643,0.0266
0.7588,0.1104,0.1815
0.7676,0.0493,0.408
0.7107,-0.0669,0.2814
0.5675,-0.0508,0.022
0.4781,0.0454,-0.0322
0.4463,0.1102,0.0958
0.4642,0.1554,0.1564
0.4981,0.139,0.1976
0.5096,0.0335,0.3181
0.5856,-0.0056,0.3635
0.6787,0.0464,0.1688
0.72,0.1187,0.1126
0.7207,0.098,0.2108
0.6098,-0.1415,0.2575
0.7434,-0.5621,0.0418
1.2777,-0.7437,-0.2709
1.78,-0.6816,-0.2805
2.446,-0.5661,-0.3384
3.122,-0.1278,0.2492
2.5642,0.1612,1.1656
1.0002,-0.3247,1.4636
1.1275,-0.2367,0.8648
1.3515,-0.1397,0.0755
1.1907,-0.0181,-0.3428
0.7769,0.1608,-0.4058
0.2218,0.193,-0.2318
-0.4268,0.0081,0.2023
-0.6083,-0.2961,0.3538
0.1138,-0.3494,0.2836
0.5143,-0.3305,0.151
0.5453,-0.3149,0.1923
0.5868,-0.2135,0.3044
0.5196,-0.0853,0.1759
0.4955,0.0491,-0.2441
0.631,0.0584,-0.6616
1.1495,-0.2182,-0.8612
2.2312,-0.4759,-0.3655
4.1549,-0.5548,1.1597
4.1285,0.0875,1.3759
2.0295,-0.1654,-0.0215
1.428,-0.1639,-0.109
0.7967,-0.2553,0.3369
0.3027,-0.3701,0.7515
0.3032,-0.3227,0.5797
0.3156,-0.2448,0.3425
0.2663,-0.1962,0.1522
0.1507,-0.1561,0.1148
0.2118,0.0078,0.0733
0.3401,0.1854,-0.0985
0.3464,0.2641,-0.204
0.4073,0.192,-0.1735
0.5355,0.0379,-0.1449
0.5482,-0.0894,-0.1011
0.4283,-0.1947,0.0183
0.4857,-0.2885,-0.023
0.8771,-0.3249,-0.2612
1.5071,-0.3171,-0.2267
2.0624,-0.2919,0.0442
3.0174,-0.3115,0.4307
3.1173,0.074,1.19
1.1605,-0.4002,1.0798
1.1175,-0.2709,0.665
1.2465,-0.0369,0.1502
1.1275,0.066,-0.1344
0.8209,0.0853,-0.1329
0.4483,0.0667,0.0117
0.2035,-0.0176,0.0901
0.1942,-0.1256,0.1153
0.2687,-0.182,0.0806
0.3232,-0.2018,-0.0989
0.0923,-0.184,-0.2573
-0.1954,-0.1725,-0.353
0.385,-0.0611,-0.2277
1.1864,-0.3362,-0.2597
2.0541,-0.5438,0.0432
3.9267,-0.4691,1.3202
3.733,0.353,0.8013
1.9615,0.0215,-0.0555
1.2357,-0.2187,0.2553
