accx,accy,accz
1.169,0.1338,-0.2892
1.1211,0.1001,-0.1104
1.0405,0.0542,-0.061
0.9032,0.0029,-0.127
0.7429,-0.0406,-0.1553
0.6095,-0.0494,-0.081
0.4747,-0.0508,0.0138
0.4322,-0.0347,0.087
0.5988,-0.0162,0.0524
0.7937,0.0068,-0.0581
0.9858,0.0253,-0.1406
1.1719,0.0151,-0.1436
1.3195,-0.0059,-0.0766
1.384,-0.0318,-0.0336
1.382,-0.0817,-0.0058
1.3419,-0.0934,0.0055
1.1895,-0.0695,-0.0273
1.0703,-0.0235,-0.1382
0.9525,-0.0729,-0.2476
1.059,-0.3406,-0.4255
1.4548,-0.2395,-0.294
1.6977,0.1255,-0.3815
1.5301,0.3341,-0.5887
1.1533,0.4661,-0.661
0.739,0.3463,-0.4675
0.6324,0.2013,-0.0854
0.6745,0.019,0.1174
0.6799,0.0146,-0.0019
0.8744,0.061,-0.0844
1.0698,0.0855,-0.0986
1.1768,0.1206,-0.1187
1.2007,0.1172,-0.1489
1.0923,0.1221,-0.145
0.9403,0.1563,-0.0834
0.8054,0.1739,-0.061
0.6779,0.1436,-0.0874
0.5836,0.0952,-0.1089
0.5572,0.0625,-0.0556
0.5734,0.0512,0.0138
0.6765,0.0322,-0.0156
0.8411,0.0444,-0.1099
0.9476,0.0796,-0.1714
1.0204,0.1323,-0.1421
1.0326,0.1812,-0.101
0.9833,0.2379,-0.0478
0.9505,0.2638,0.0548
1.0268,0.2707,0.1145
1.1763,0.2716,0.0768
1.3884,0.2819,-0.0126
1.4714,0.1895,-0.2144
1.359,0.2956,-0.2056
1.2213,0.6117,-0.4333
1.5525,0.4402,-0.6365
1.5906,0.1754,-0.8633
1.0791,-0.0377,-0.6762
0.7532,-0.13,-0.2896
0.5323,-0.1887,0.0416
0.5704,-0.091,0.2043
0.78,0.0762,0.1467
0.9261,0.21,-0.0458
0.9638,0.1275,-0.2315
0.9833,0.0923,-0.2393
1.0815,0.1402,-0.1524
1.0986,0.2198,-0.1294
1.0248,0.2432,-0.209
0.9007,0.1925,-0.2691
0.7991,0.1661,-0.1734
0.6657,0.1646,-0.0537
0.6051,0.1676,-0.0126
0.6594,0.1759,-0.0947
0.7092,0.1734,-0.1758
0.823,0.1729,-0.1729
0.9833,0.1671,-0.1221
1.0981,0.1587,-0.1064
1.1719,0.1475,-0.1015
1.2574,0.0463,-0.0444
1.3209,-0.0914,0.0382
1.3717,-0.1867,0.1389
1.3493,-0.1364,0.218
1.1778,-0.0778,0.304
0.9911,-0.1149,0.389
0.9941,-0.1378,0.3558
0.9589,-0.1325,0.0328
0.8592,-0.177,-0.3581
1.064,-0.0778,-0.3395
1.4812,0.4641,-0.0854
1.4182,0.6635,-0.3459
1.166,0.8491,-0.5188
0.8323,0.5902,-0.4152
0.6506,0.318,-0.0839
0.6256,0.1832,0.1525
0.5914,0.0537,0.1315
0.8396,0.3068,0.0895
1.1382,0.4231,-0.1592
1.3156,0.3928,-0.3473
1.3146,0.3493,-0.2545
1.1299,0.3948,-0.1958
1.0268,0.4939,-0.2476
0.8861,0.5232,-0.3126
0.8045,0.5115,-0.2398
0.716,0.4915,-0.0302
0.6667,0.4529,-0.0009
0.7586,0.3317,-0.1245
0.8538,0.1861,-0.294
0.9862,0.0835,-0.2232
0.9667,0.0635,-0.0497
0.8626,0.1358,0.091
0.7927,0.2364,-0.0029
0.8196,0.3122,-0.2085
0.9037,0.2809,-0.2657
0.8998,0.1934,-0.1768
0.7483,0.1362,-0.0356
0.6848,0.1065,0.0934
0.8578,0.0693,0.1755
1.019,0.0684,0.0988
1.1001,0.0645,-0.0576
1.0361,0.0908,-0.1489
0.9926,0.105,0.0177
0.9349,0.1465,0.2659
0.9383,0.1666,0.3612
0.9491,0.1851,0.2532
1.0238,0.1944,0.1687
1.1103,0.1284,0.2122
1.1089,0.0248,0.2522
1.1567,-0.0631,0.3059
1.2452,-0.0792,0.3773
1.3537,-0.0763,0.3485
1.3063,-0.0191,0.1877
1.1157,0.0996,0.0968
0.696,0.2682,0.1345
0.5059,0.5716,0.1926
0.8885,0.8521,-0.0346
1.5848,0.7231,-0.468
1.9947,0.2672,-0.6722
1.6117,0.017,-0.4084
0.8372,-0.0479,0.2317
0.418,0.1265,0.5185
0.5127,0.4011,0.1101
0.8201,0.5496,-0.3258
0.9579,0.5618,-0.5501
0.9442,0.5076,-0.4093
0.9887,0.4372,-0.3214
0.9476,0.4026,-0.4885
0.9955,0.3576,-0.5999
0.9902,0.3034,-0.4704
0.9633,0.1851,-0.1304
1.0014,0.0723,0.028
1.0693,-0.0729,-0.0346
1.1582,-0.1559,-0.1343
1.1719,-0.0729,-0.1411
1.0849,0.0297,-0.0996
1.1099,0.0537,-0.0258
1.1514,0.1094,-0.0082
1.1734,0.2462,-0.0463
1.082,0.3855,-0.0898
0.9212,0.4641,-0.0737
0.7263,0.5145,-0.0009
0.6706,0.4436,0.088
0.7639,0.2687,0.1389
0.7219,0.0268,0.1007
0.9227,-0.07,0.1076
1.1499,-0.0763,0.0651
1.3043,-0.0181,0.0333
1.358,0.1167,0.091
1.3156,0.232,0.1237
1.23,0.2633,0.0592
1.1221,0.2511,-0.0507
1.04,0.2535,-0.0576
0.9339,0.2047,-0.1211
0.7449,0.1148,-0.2242
0.909,-0.0748,-0.3566
1.2608,-0.2683,-0.4387
1.5437,-0.0108,-0.4641
1.4758,0.3777,-0.468
0.9374,0.2975,-0.448
0.6828,0.1749,-0.2174
0.7864,0.0649,0.007
0.9173,-0.0474,0.045
1.0004,-0.003,-0.0576
1.1094,0.0767,-0.127
1.1645,0.147,-0.2012
1.1934,0.1661,-0.2345
1.0903,0.1392,-0.2135
0.8924,0.1133,-0.1387
0.7175,0.0991,-0.0615
0.6329,0.0762,-0.0078
0.5704,0.0341,-0.0454
0.5538,0.0092,-0.0688
0.6628,0.0209,-0.0497
0.8827,0.0591,-0.0195
1.1362,0.1089,-0.0336
1.4284,0.1671,-0.0707
1.6337,0.2291,-0.1494
1.5574,0.2638,-0.3106
1.3624,0.3302,-0.2672
1.2032,0.3131,-0.0497
0.7551,0.2692,0.005
0.4634,0.2882,0.0421
0.5079,0.3913,-0.1231
1.0151,0.2008,-0.342
1.2134,-0.1129,-0.6527
1.2623,-0.2908,-0.5867
1.0341,-0.3641,-0.3346
0.6828,-0.3162,-0.0512
0.7165,0.02,0.1306
0.8391,0.212,0.0324
0.9364,0.298,-0.1265
0.8479,0.2564,-0.1826
0.6134,0.106,-0.1397
0.7194,0.0214,-0.0229
0.8885,-0.0054,-0.02
0.9784,-0.0035,-0.1182
1.037,-0.0084,-0.1753
1.0536,-0.0152,-0.1729
1.0752,-0.0323,-0.1392
1.0546,-0.0113,-0.0649
1.0048,0.0361,-0.0268
1.0151,0.0786,-0.0175
1.1401,0.064,-0.0297
1.2725,-0.0245,-0.0395
1.2999,-0.1041,-0.0248
1.2633,-0.1461,0.0324
1.1768,-0.1687,0.0221
1.1348,-0.1892,-0.0288
1.188,-0.3001,-0.19
1.3287,-0.1539,-0.3761
1.3532,0.0488,-0.5364
1.2364,0.1666,-0.4817
1.0077,0.2452,-0.422
0.7703,0.3073,-0.3527
0.7053,0.299,-0.273
0.7932,0.2086,-0.2633
0.8646,0.1734,-0.2447
0.974,0.1847,-0.1738
1.0517,0.1602,-0.1812
1.1089,0.1113,-0.1455
1.1494,0.106,-0.1362
1.0654,0.1152,-0.1035
0.9286,0.146,-0.0454
0.802,0.1641,-0.0722
0.6994,0.1871,-0.0996
0.6501,0.1812,-0.127
0.673,0.1348,-0.1059
0.7488,0.0723,-0.0356
0.8519,0.0375,0.0074
0.9672,0.0165,-0.0121
1.0815,0.0488,-0.0629
1.2149,0.1196,-0.06
1.2951,0.2213,-0.0727
1.3419,0.2907,-0.1411
1.2647,0.3205,-0.1978
1.168,0.3117,-0.148
1.037,0.2564,-0.1963
0.9183,0.2491,-0.082
0.9041,0.3244,-0.0771
1.1304,0.2599,-0.2031
1.3156,0.0606,-0.4787
1.251,-0.0827,-0.6107
0.9701,-0.1862,-0.5115
0.7062,-0.1765,-0.2599
0.631,-0.0822,-0.0048
0.7224,0.0195,0.0714
0.8504,0.1025,-0.0312
0.9037,0.1314,-0.2213
0.8924,0.1411,-0.3244
0.8924,0.1406,-0.2525
0.9623,0.1265,-0.146
0.9711,0.082,-0.1187
0.8968,0.0248,-0.1563
0.8421,-0.046,-0.1353
0.7742,-0.0675,-0.0571
0.7053,-0.0651,0.0153
0.7287,-0.0455,0.0367
0.8142,-0.0225,0.0065
0.9027,-0.0074,-0.0605
1.0561,-0.002,-0.0991
1.1959,0.0019,-0.0996
1.2838,0.0136,-0.0864
1.2584,-0.0137,-0.0756
1.1846,-0.0445,-0.0288
1.1504,-0.0651,0.0187
1.0918,-0.0489,0.0211
1.0488,-0.0274,0.0045
1.0248,0.0087,-0.0825
1.1064,-0.0142,-0.0771
1.3375,-0.2727,-0.1157
1.5579,-0.324,-0.252
1.6571,-0.1388,-0.4084
1.7153,0.0038,-0.4152
1.4152,0.2384,-0.3625
0.8514,0.2838,-0.4309
0.6623,0.2193,-0.2984
0.5328,0.1485,-0.2179
0.6389,0.0312,-0.1143
0.6334,0.0117,-0.1885
0.7932,0.0292,-0.1387
0.8998,0.0791,-0.08
1.0121,0.1406,-0.0888
1.1435,0.1612,-0.1489
1.1064,0.1328,-0.2031
0.9906,0.1118,-0.147
0.8504,0.1177,-0.0844
0.7248,0.1182,-0.0839
0.629,0.1143,-0.1025
0.6281,0.1025,-0.0981
0.7321,0.083,-0.0712
0.8607,0.063,-0.0327
0.9985,0.0596,-0.0185
1.1362,0.0825,-0.0522
1.2183,0.1187,-0.1104
1.2281,0.1749,-0.1704
1.166,0.2071,-0.1778
1.1333,0.214,-0.1089
1.1475,0.2105,-0.0331
1.1758,0.1988,0.0089
1.2442,0.1632,0.0128
1.2618,0.1104,-0.1318
1.1832,0.1235,-0.2022
1.1309,0.2501,-0.3141
1.2252,0.2711,-0.3312
1.1939,0.1851,-0.508
1.038,0.0884,-0.5295
0.737,-0.0098,-0.3752
0.5132,-0.0831,-0.1333
0.6349,-0.0831,0.0289
0.8426,-0.0377,-0.059
0.9461,0.0483,-0.2618
1.0009,0.1065,-0.3673
0.9628,0.1275,-0.3293
0.9427,0.1231,-0.1988
0.9633,0.0962,-0.0996
0.8954,0.0527,-0.1387
0.8435,-0.0025,-0.167
0.8108,-0.0401,-0.1099
0.7786,-0.0665,-0.038
0.7312,-0.0621,-0.0107
0.7678,-0.0435,-0.0151
0.8827,-0.0142,-0.0512
1.018,0.017,-0.1059
1.1504,0.04,-0.168
1.2462,0.0175,-0.1953
1.252,-0.0411,-0.1333
1.1773,-0.066,-0.0219
1.1788,-0.0518,0.0338
1.2471,-0.0396,-0.0058
1.3673,0.0019,-0.0546
1.34,0.0703,-0.1094
1.2173,0.039,-0.1231
1.1074,-0.2209,-0.2794
1.1978,-0.2517,-0.3224
1.2613,-0.0215,-0.4368
1.1729,0.2037,-0.3512
0.9056,0.3146,-0.3288
0.6682,0.3131,-0.3004
0.6779,0.1783,-0.2413
0.7429,0.0156,-0.1665
0.8474,-0.0494,-0.0546
1.0297,0.0175,0.005
1.1543,0.1074,-0.0288
1.1783,0.169,-0.1304
1.1343,0.1827,-0.2306
0.953,0.1568,-0.169
0.7678,0.1441,-0.04
0.5905,0.1441,0.005
0.4228,0.1494,-0.0195
0.3725,0.1436,-0.0722
0.4776,0.1314,-0.1015
0.6789,0.1577,-0.0649
0.8573,0.2144,-0.0463
1.0551,0.2633,-0.0981
1.2462,0.297,-0.1704
1.3786,0.317,-0.1802
1.3732,0.2917,-0.1475
1.3224,0.232,-0.1323
1.2858,0.1572,-0.0986
1.2736,0.0728,-0.1128
1.1162,0.1167,-0.2349
1.1494,0.3683,-0.3145
1.3512,0.5198,-0.4538
1.6517,0.2863,-0.7851
1.6454,0.1759,-0.9082
1.0151,-0.0875,-0.7675
0.6423,-0.0953,-0.3307
0.4371,-0.1539,-0.0219
0.5709,-0.1559,0.195
0.9032,0.0493,0.1662
1.0302,0.0669,-0.0947
1.1837,-0.0005,-0.2403
1.2652,-0.0181,-0.3185
1.3131,0.0019,-0.316
1.2564,0.0488,-0.2154
1.0107,0.0288,-0.1387
0.7825,0.0097,-0.0585
0.589,-0.0054,-0.0229
0.4473,-0.0001,-0.0126
0.4155,0.0239,-0.0307
0.5035,0.0449,-0.0727
0.6574,0.0078,-0.1226
0.805,-0.1393,-0.1436
0.9193,-0.2923,-0.0913
0.956,-0.3778,0.046
0.9178,-0.1638,0.1579
0.8006,0.169,0.1701
0.8421,0.3439,0.1516
1.1773,0.3532,0.1696
1.2554,0.3337,0.0836
1.2022,0.2223,0.1564
1.3629,0.0366,0.1345
1.5579,-0.0113,0.0221
1.5784,0.0908,-0.2511
1.318,0.0107,-0.7074
0.954,-0.0568,-1.0812
0.9159,-0.111,-0.9674
0.9422,0.4416,-0.2774
1.0713,0.6517,-0.0644
0.8705,0.5154,-0.0717
0.7424,0.3341,-0.0248
0.7287,0.2027,-0.1245
0.8939,0.1353,-0.2296
1.0786,0.1837,-0.2061
1.1103,0.2555,-0.0991
1.1269,0.3122,-0.0454
1.1309,0.3195,-0.0947
1.019,0.362,-0.2608
0.8758,0.3952,-0.3537
0.7165,0.3943,-0.3522
0.6222,0.3879,-0.275
0.673,0.319,-0.1958
0.7947,0.2413,-0.1738
0.8534,0.1558,-0.1582
0.9183,0.0884,-0.1362
0.9902,0.0816,-0.0903
0.9599,0.1299,-0.0278
0.8289,0.2061,0.0089
0.7243,0.2721,-0.0048
0.7048,0.3337,-0.018
0.7752,0.3718,-0.0488
0.8401,0.3703,-0.0292
0.952,0.3185,-0.0082
1.04,0.2364,0.0333
1.0928,0.2281,0.088
1.1641,0.3034,0.1403
1.0981,0.3376,0.1477
1.0546,0.3395,0.155
1.0141,0.2873,0.2107
0.9022,0.1978,0.2512
0.7556,0.1397,0.2674
0.8421,0.039,0.2991
1.3161,-0.0079,0.3035
1.5975,-0.1251,0.2298
1.3258,-0.1281,-0.0331
0.8885,0.0214,-0.1997
0.4356,0.3468,-0.4499
0.6144,0.4753,-0.6365
1.0522,0.6586,-0.985
1.6097,0.7685,-0.7807
1.5462,0.3454,-0.5149
1.2247,0.0576,-0.0073
0.8939,0.0796,0.0055
0.8426,0.2003,-0.3283
0.8792,0.3,-0.4812
1.0033,0.3478,-0.3067
1.037,0.3644,-0.2144
1.104,0.3249,-0.253
1.1435,0.193,-0.3337
1.1094,-0.0729,-0.2354
1.1269,-0.1266,0.0109
1.1489,-0.1731,0.1301
1.165,-0.2111,0.1799
1.0742,-0.1193,0.1306
0.9085,-0.1237,0.1105
0.7566,-0.0538,0.1696
0.7757,0.0723,0.2273
0.8636,0.2076,0.1701
0.9779,0.3673,0.0841
1.0898,0.5628,0.0543
1.1832,0.6904,0.1296
1.2359,0.6097,0.303
1.2042,0.3175,0.4183
1.3781,0.0497,0.3915
1.2486,-0.1706,0.1379
0.8534,-0.1422,-0.0947
0.7097,-0.2072,-0.3888
0.8739,-0.3758,-0.3322
1.1289,0.2349,-0.3219
1.3502,0.6766,-0.4113
1.3517,1.1042,-0.6986
0.953,0.9439,-0.4035
0.8558,0.3605,0.0836
0.7849,0.1939,0.0734
0.6794,0.0781,-0.1436
0.6433,0.1358,-0.2056
0.8866,0.212,-0.1182
1.147,0.1504,0.026
1.083,0.1094,0.045
1.0092,0.1309,-0.0468
0.9525,0.1842,-0.1235
0.9701,0.2423,-0.0903
1.0356,0.2203,-0.0292
1.0762,0.1358,0.0138
1.125,0.0664,-0.0082
1.2208,0.0195,-0.1049
1.3331,0.0693,-0.2476
1.4182,0.1587,-0.2188
1.3283,0.3014,-0.1201
