accx,accy,accz
0.7402,-0.0364,0.0222
0.8104,-0.1187,0.0594
0.8712,-0.1036,0.0953
0.8993,-0.0894,0.0909
0.9069,-0.0733,0.1024
0.9528,-0.0371,0.0779
1.0749,-0.0107,0.1146
1.2215,-0.0161,0.1935
1.2758,-0.0657,0.2597
1.2269,-0.0806,0.2722
1.1785,-0.0809,0.1454
1.0691,-0.074,-0.0254
1.2797,-0.1849,0.0381
1.5323,-0.2399,0.0828
1.6369,-0.2143,-0.1796
1.2853,-0.108,-0.2138
0.9161,-0.0347,-0.1659
0.74,0.0081,-0.1542
0.7224,0.0413,-0.0887
0.8705,-0.0051,-0.0403
0.9977,-0.0792,0.0264
1.0591,-0.1146,0.0401
1.0373,-0.0941,0.0173
0.9249,-0.0454,0.0137
0.8055,-0.0015,0.0144
0.6863,-0.0103,0.0432
0.6301,-0.0442,0.0762
0.6948,-0.1192,0.0428
0.7527,-0.1688,-0.0296
0.7598,-0.1549,-0.0503
0.7745,-0.1283,-0.053
0.824,-0.076,-0.0388
0.9203,-0.0159,-0.0239
1.0109,-0.0357,-0.0283
1.0354,-0.148,0.0398
1.0718,-0.2446,0.1148
1.1717,-0.29,0.1412
1.2359,-0.3005,0.1534
1.1492,-0.2846,0.1669
1.05,-0.2074,0.1805
1.0706,-0.1124,0.095
1.1331,-0.0931,-0.0806
1.253,-0.1417,-0.2617
1.5692,-0.2487,-0.2988
1.5831,-0.2477,-0.2673
1.1485,-0.1571,-0.2692
0.8499,-0.0384,-0.2768
0.7424,0.0611,-0.213
0.8082,0.0567,-0.0611
0.8973,0.0044,0.065
1.0009,-0.0923,0.1173
1.0214,-0.1986,0.0972
0.9902,-0.2934,0.0745
0.8939,-0.2988,0.0337
0.7938,-0.1796,0.0232
0.7329,-0.0066,-0.0024
0.6726,0.0965,-0.0428
0.6015,0.0904,-0.0525
0.5924,-0.01,-0.0088
0.6044,-0.1258,0.0577
0.6682,-0.1598,0.0667
0.7788,-0.0855,0.0371
0.902,-0.0567,0.0252
1.0918,-0.0792,0.1004
1.2885,-0.1366,0.1808
1.3261,-0.2431,0.1906
1.1392,-0.3005,0.193
1.1155,-0.1967,0.1974
1.1346,-0.0889,0.2233
1.1285,-0.0391,0.1627
1.2152,-0.0068,0.0567
1.4243,-0.0459,-0.074
1.5943,-0.106,-0.1676
1.6005,-0.1847,-0.1852
1.2592,-0.1561,-0.1695
0.922,0.0437,-0.1336
0.7701,0.1678,-0.2226
0.7603,0.1884,-0.3166
0.9091,0.0591,-0.2785
0.9814,-0.192,-0.1612
1.0767,-0.3254,0.0137
1.03,-0.2555,0.0645
0.8714,-0.1361,0.011
0.7214,-0.0225,0.0166
0.6179,0.0183,0.0557
0.5927,-0.0061,0.0616
0.6613,-0.0689,-0.0186
0.7542,-0.1549,-0.0545
0.8495,-0.2343,-0.032
0.9149,-0.2565,0.0076
0.9027,-0.1972,0.0122
0.8541,-0.1055,0.0381
0.8546,-0.0855,0.085
0.889,-0.098,0.1092
0.9464,-0.127,0.0625
1.0051,-0.2304,0.0611
1.0158,-0.2961,0.0799
0.9797,-0.3249,0.0941
0.9311,-0.3608,0.1661
0.8277,-0.3125,0.2314
0.751,-0.2541,0.2433
0.8189,-0.3103,0.2487
0.9931,-0.3384,0.2265
1.0564,-0.364,0.2279
1.0757,-0.4117,0.2209
1.1426,-0.42,0.2221
1.2394,-0.3738,0.2785
1.1468,-0.3271,0.3152
0.9633,-0.2753,0.2885
1.0598,-0.0989,0.2279
1.1634,0.0657,0.4498
1.438,0.2038,0.4432
1.5946,0.2255,0.0572
1.3427,0.0694,-0.1588
1.0588,0.0635,-0.1818
1.0117,0.1761,-0.2785
1.0964,0.2558,-0.216
1.0525,0.2279,0.0308
0.9406,0.1229,0.1749
0.8475,0.0457,0.1136
0.8104,0.0274,0.0015
0.8719,0.0806,-0.0129
0.9208,0.1842,-0.0054
0.9271,0.2766,0.0418
0.9284,0.2988,0.0933
0.8758,0.2155,0.0662
0.8771,0.1273,-0.0213
0.924,0.054,-0.0782
0.9357,0.0349,-0.0845
0.8482,0.0643,-0.0557
0.8245,0.1156,-0.0068
0.8233,0.0919,-0.0203
0.8751,0.0227,-0.0198
0.8859,-0.0498,0.0164
0.8695,-0.0948,0.0858
0.8414,-0.1417,0.1258
0.9034,-0.1705,0.1791
0.9894,-0.1126,0.2201
0.9846,-0.032,0.2018
0.9306,0.0059,0.191
0.9201,0.0076,0.1986
0.9245,-0.0701,0.2404
0.956,-0.0662,0.3647
0.899,0.0501,0.4495
0.8568,0.1087,0.388
0.9098,0.0625,0.3291
1.0491,-0.0154,0.3186
1.2157,-0.0845,0.3635
1.3205,-0.0271,0.4121
1.3261,0.073,0.4371
1.1886,0.0926,0.4642
1.0373,0.0916,0.5455
0.816,0.1329,0.0723
0.9973,0.3088,-0.1642
1.4162,0.3635,-0.1175
1.7363,0.2568,0.0972
1.3874,0.1713,-0.0291
1.0986,0.2047,-0.2768
0.945,0.2179,-0.4307
0.8458,0.1168,-0.3227
0.8854,-0.0132,-0.0655
1.009,-0.0806,0.0322
1.126,0.032,-0.0296
1.1475,0.1681,-0.074
1.0835,0.194,-0.0286
0.9719,0.1358,0.0105
0.8793,0.0322,0.0625
0.8358,-0.0535,0.1461
0.8341,-0.0513,0.1871
0.8766,-0.0325,0.2064
0.9425,0.0342,0.1515
0.999,0.0955,0.1644
0.9787,0.1114,0.1786
0.8876,0.095,0.1287
0.8248,0.0643,0.1046
0.7781,0.0051,0.1305
0.763,-0.0645,0.1876
0.7901,-0.1349,0.237
0.8751,-0.1678,0.2177
0.9538,-0.149,0.1874
1.0012,-0.0901,0.1429
1.0122,0.0122,0.1055
1.0532,0.0752,0.1512
1.096,0.0322,0.2489
1.135,-0.0423,0.195
1.2066,-0.1138,0.0921
1.2306,-0.1568,-0.0508
1.4531,-0.2006,-0.0203
1.6369,-0.1608,-0.0823
1.5406,-0.1378,-0.2446
1.2035,-0.1131,-0.2301
0.8656,-0.0919,-0.2216
0.6411,-0.0286,-0.206
0.6506,0.041,-0.095
0.9599,0.0066,-0.0992
1.083,-0.023,-0.084
1.0671,-0.0562,-0.0452
1.0454,-0.0936,-0.0259
1.0053,-0.0887,-0.0149
0.8841,-0.0853,0.0376
0.7144,-0.0823,0.0694
0.5851,-0.0696,0.0633
0.5446,-0.0743,0.0496
0.6591,-0.0564,0.0643
0.7835,-0.0467,0.0442
0.8025,-0.0535,0.044
0.7691,-0.0755,0.0486
0.7615,-0.0826,0.0667
0.8419,-0.0792,0.0447
0.9621,-0.0643,0.0362
1.1248,-0.0498,0.0217
1.2648,-0.0684,0.0462
1.3066,-0.053,0.1143
1.2372,-0.0347,0.1212
1.1868,-0.0337,0.0767
1.2279,-0.0344,0.0547
1.3368,-0.0809,-0.0281
1.6005,-0.1874,-0.0865
1.5516,-0.1373,-0.2678
1.3083,-0.0677,-0.2753
1.0009,-0.0398,-0.1571
0.7681,-0.0547,-0.1266
0.698,-0.0931,-0.1783
0.8267,-0.1517,-0.182
1.05,-0.1727,-0.1395
1.1722,-0.1595,-0.0388
1.0979,-0.16,0.0235
0.9318,-0.1515,0.0508
0.7847,-0.1146,0.1136
0.677,-0.0591,0.1094
0.6012,-0.0156,0.0523
0.5653,0.0105,0.0469
0.6613,-0.0222,0.0428
0.7972,-0.0711,-0.0259
0.8707,-0.0748,-0.0269
0.879,-0.0801,0.0252
0.8617,-0.1114,0.02
0.8751,-0.1459,-0.0178
0.9547,-0.1488,-0.0139
1.1253,-0.1681,0.0672
1.2616,-0.2196,0.1397
1.2892,-0.1952,0.1415
1.1722,-0.2003,0.1107
1.0312,-0.2147,0.15
1.0276,-0.1935,0.1073
1.0451,-0.1886,-0.0801
1.2313,-0.2069,-0.1673
1.4517,-0.2174,-0.1774
1.5372,-0.2025,-0.1805
1.244,-0.1459,-0.2775
1.0126,-0.1038,-0.334
0.8868,-0.0445,-0.2956
0.9005,0.0083,-0.1283
0.9144,0.0386,0.03
0.9125,0.0252,0.044
0.9408,-0.0401,-0.0164
0.9115,-0.1168,0.0002
0.8651,-0.1766,0.0279
0.7813,-0.1845,0.0154
0.7112,-0.1258,0.0049
0.6806,-0.0472,-0.0024
0.6902,0.0286,-0.0137
0.742,0.0665,-0.0254
0.7999,0.0083,-0.0454
0.8331,-0.0821,-0.0217
0.8595,-0.1068,0.0215
0.9442,-0.0713,0.0376
0.9692,-0.0564,0.0137
0.9328,-0.0388,0.0669
0.9176,-0.0042,0.1163
0.9499,-0.0432,0.1534
1.0339,-0.0672,0.1432
1.1365,-0.0178,0.0994
1.1973,0.0115,0.0889
1.1722,-0.0198,0.0599
1.2213,-0.0752,0.1432
1.4297,-0.2675,0.0257
1.7397,-0.4356,-0.0467
1.6691,-0.1947,-0.2998
1.1886,0.0281,-0.2294
0.8582,0.0901,-0.1688
0.7359,0.0777,-0.1595
0.8382,0.0129,-0.2042
1.0334,-0.0772,-0.2169
1.1903,-0.1361,-0.0767
1.1297,-0.1715,0.0415
0.953,-0.2011,0.0794
0.7539,-0.2062,0.0862
0.6113,-0.1754,0.0948
0.5419,-0.108,0.1048
0.4703,-0.0437,0.1021
0.4749,-0.0274,0.0261
0.6496,-0.0865,-0.0469
0.836,-0.1353,-0.0569
0.9345,-0.1309,-0.0042
0.9533,-0.1002,0.0151
0.9347,-0.075,0.0071
0.9252,-0.0789,0.0117
0.9298,-0.1224,0.0264
1.0432,-0.1857,0.0555
1.2286,-0.2272,0.1178
1.3405,-0.2519,0.0547
1.3295,-0.2323,-0.0012
1.3029,-0.2045,-0.009
1.2242,-0.1906,-0.073
1.3144,-0.3003,-0.2941
1.5408,-0.2321,-0.2988
1.5108,-0.0826,-0.2243
1.136,-0.0064,-0.1666
0.8267,-0.0286,-0.0735
0.6689,-0.0699,-0.0049
0.7476,-0.1766,-0.0147
0.8732,-0.1556,0.0308
0.9811,-0.0616,0.0762
1.0745,-0.0117,0.052
1.0043,-0.0454,0.0178
0.9301,-0.1082,-0.0105
0.8697,-0.1331,-0.0247
0.803,-0.0955,-0.0283
0.7251,-0.034,-0.0276
0.6518,0.0237,-0.03
0.6301,0.0398,-0.0183
0.642,-0.0068,0.0144
0.6833,-0.0625,0.0388
0.7727,-0.1033,0.0718
0.9137,-0.0528,0.0921
1.0258,-0.0342,0.0894
1.0525,-0.0239,0.0884
1.0696,-0.0518,0.1532
1.1546,-0.0831,0.1683
1.2401,-0.109,0.1234
1.2462,-0.0391,0.1319
1.1881,-0.0122,0.1217
1.2259,-0.0022,0.0344
1.4446,-0.0858,-0.0125
1.6476,-0.1463,-0.1808
1.6378,-0.0818,-0.4236
1.2499,0.0012,-0.352
0.9362,-0.034,-0.2101
0.7857,-0.138,-0.1725
0.751,-0.2326,-0.192
0.8949,-0.2524,-0.1459
0.9584,-0.2091,-0.0564
0.9926,-0.15,0.0542
0.9474,-0.1043,0.0601
0.8668,-0.0628,0.0151
0.7588,-0.03,-0.0384
0.6386,-0.0125,-0.0569
0.5436,0.0039,-0.0452
0.5482,0.0081,-0.0313
0.6557,-0.0848,-0.0535
0.7486,-0.1722,-0.0481
0.8131,-0.1793,-0.0149
0.848,-0.1375,0.0015
0.8451,-0.0828,-0.0161
0.856,-0.0506,-0.0327
0.9096,-0.0882,0.0149
1.082,-0.1967,0.0652
1.3273,-0.2682,0.1224
1.4947,-0.3369,0.1263
1.3767,-0.3178,0.0875
1.2504,-0.2235,0.0875
1.1663,-0.183,-0.0362
1.1512,-0.2519,-0.2162
1.3708,-0.3044,-0.2521
1.5404,-0.2639,-0.2155
1.3566,-0.1051,-0.2751
1.0207,0.0217,-0.2978
0.7999,0.0982,-0.2778
0.7251,0.0586,-0.1891
0.7881,-0.0462,-0.0535
0.9078,-0.1395,0.0696
0.977,-0.1976,0.0865
0.9675,-0.2463,-0.0046
0.8727,-0.2372,-0.0606
0.8199,-0.1468,-0.0545
0.7659,-0.0298,-0.0889
0.6726,0.0696,-0.0928
0.6088,0.0872,-0.075
0.5744,-0.0095,-0.0388
0.6049,-0.1417,0.0137
0.6694,-0.2218,0.0186
0.8047,-0.1207,0.0054
0.9074,-0.0098,-0.0173
1.0217,0.0344,0.0474
1.0693,-0.0032,0.0867
1.0156,-0.1055,0.054
1.0114,-0.1551,0.0762
1.0285,-0.1459,0.1871
1.0469,-0.1256,0.2016
1.1465,-0.1432,0.0955
1.296,-0.1197,-0.0462
1.5699,-0.0872,0.0054
1.9012,-0.1485,-0.0403
1.9901,-0.127,-0.2067
1.3557,0.0156,-0.3391
0.9679,0.1393,-0.2316
0.8211,0.1593,-0.2399
0.7872,0.1463,-0.2788
0.9042,0.0713,-0.2028
0.9582,-0.1586,-0.0919
0.9225,-0.2543,0.0972
0.8946,-0.2636,0.149
0.8663,-0.2336,0.1029
0.824,-0.1178,0.0459
0.7876,-0.0208,-0.0149
0.7559,0.0132,-0.1041
0.7847,-0.0313,-0.2218
0.8008,-0.0474,-0.2497
0.8705,-0.1119,-0.213
0.9401,-0.181,-0.087
0.9271,-0.2016,0.0706
0.7986,-0.2309,0.1236
0.6567,-0.2599,0.1981
0.6352,-0.2861,0.2773
0.7786,-0.2875,0.2047
0.922,-0.2265,0.1024
0.9628,-0.1336,0.0977
0.9462,-0.0682,0.1869
0.9579,-0.1046,0.2624
0.8827,-0.1336,0.2475
0.7407,-0.1881,0.2866
0.7153,-0.3144,0.3445
0.9662,-0.364,0.3745
1.1834,-0.2961,0.3303
1.2484,-0.1979,0.3174
1.1585,-0.1598,0.3775
1.042,-0.4202,0.2707
1.2565,-0.5086,0.2338
1.4023,-0.3728,0.4095
1.3908,-0.2218,0.4344
1.1448,-0.172,0.278
0.9714,-0.1422,0.1204
0.9572,-0.1317,0.0022
1.0415,-0.0757,-0.0989
1.061,0.0364,-0.1603
1.0185,0.1549,-0.1847
0.9303,0.195,-0.1341
0.8986,0.1732,-0.0684
0.8495,0.0701,-0.0467
0.7925,-0.0298,-0.0044
0.7481,-0.0513,-0.0051
0.8446,0.0388,-0.0794
0.956,0.2213,-0.0985
0.9826,0.3848,0.0318
0.9589,0.442,0.1517
0.8746,0.343,0.107
0.7427,0.1275,0.0352
0.8084,-0.0716,0.0486
1.0244,-0.129,0.0689
1.1023,-0.0821,0.0511
0.987,-0.0205,0.0115
0.8539,0.0125,-0.0503
0.8277,0.0005,-0.0752
0.8959,0.0181,-0.0853
0.9569,0.0782,-0.0472
1.0031,0.0574,-0.0574
1.0556,-0.0213,-0.1226
1.1096,-0.1292,-0.0589
1.052,-0.1534,0.0396
0.9946,-0.0814,0.0489
1.0126,-0.0088,0.0254
1.028,-0.0242,0.055
1.0144,-0.0628,0.1422
1.0376,-0.0484,0.2091
1.0454,-0.0486,0.171
0.9872,-0.0733,0.17
0.942,-0.1253,0.2394
0.878,-0.109,0.3469
0.9623,-0.0139,0.2968
0.8827,0.0193,0.1923
0.9115,-0.073,0.1893
1.0148,-0.1319,0.1644
1.1138,-0.0542,0.1041
1.0527,-0.0056,0.1502
0.8468,-0.0349,0.2954
0.783,-0.0872,0.3154
0.911,-0.107,0.3728
0.8695,-0.1363,0.3982
0.7178,-0.1212,0.3386
0.8082,-0.0034,0.3894
0.8592,0.1073,0.4087
0.8868,0.1002,0.388
0.9508,0.0401,0.4429
1.0092,-0.0308,0.502
0.9894,-0.0491,0.5631
0.9127,-0.0589,0.6003
0.9208,-0.0381,0.6936
1.0197,-0.0366,0.5612
1.1631,-0.0613,0.3022
1.3175,-0.0533,0.1827
1.4375,-0.0007,0.3799
1.3268,-0.0068,0.6367
1.1245,0.034,0.6452
1.0114,0.1239,0.2983
1.0268,0.3667,-0.0388
1.1013,0.5011,-0.2551
1.2215,0.5993,-0.1639
1.4412,0.5683,0.0423
