accx,accy,accz
1.3757,-0.0826,-0.1972
1.3178,-0.0674,-0.1928
1.2592,-0.054,-0.183
1.2015,-0.0437,-0.1686
1.1473,-0.0366,-0.148
1.0938,-0.0308,-0.1236
1.0437,-0.0274,-0.0977
0.9987,-0.0237,-0.0711
0.9643,-0.0171,-0.0415
0.9308,-0.0203,-0.0132
0.8956,-0.0325,0.0103
0.8646,-0.0447,0.0325
0.8431,-0.053,0.0542
0.8177,-0.063,0.0728
0.7876,-0.0765,0.0921
0.7564,-0.0892,0.1126
0.7266,-0.1011,0.1297
0.6968,-0.1138,0.1422
0.666,-0.1266,0.1524
0.6362,-0.1388,0.1608
0.6093,-0.1498,0.1678
0.5854,-0.1595,0.1747
0.5636,-0.1673,0.1818
0.5443,-0.1742,0.1876
0.5284,-0.1783,0.1918
0.5179,-0.1801,0.1947
0.5111,-0.1818,0.1964
0.502,-0.1854,0.1974
0.4962,-0.1874,0.1967
0.5011,-0.1813,0.1898
0.5196,-0.1676,0.1776
0.5519,-0.1505,0.1654
0.5937,-0.1319,0.1544
0.6401,-0.1121,0.1432
0.6863,-0.0916,0.1309
0.7307,-0.0716,0.1182
0.7723,-0.0515,0.1063
0.8111,-0.032,0.0926
0.8482,-0.0132,0.077
0.8819,0.0056,0.0628
0.913,0.0235,0.0498
0.9423,0.0396,0.0374
0.9687,0.0557,0.0257
0.9921,0.0706,0.0142
1.0131,0.0848,0.0039
1.0317,0.0994,-0.0039
1.0464,0.1116,-0.0105
1.0571,0.1222,-0.0173
1.0659,0.1361,-0.0213
1.0747,0.1512,-0.0222
1.0847,0.1661,-0.0208
1.0938,0.1801,-0.0169
1.1001,0.1925,-0.0112
1.104,0.2035,-0.0049
1.1057,0.2128,0.0032
1.1062,0.2228,0.0127
1.1052,0.2333,0.023
1.1033,0.2448,0.034
1.0979,0.2524,0.045
1.0886,0.2587,0.055
1.0764,0.2641,0.0647
1.0598,0.2665,0.0728
1.0383,0.266,0.0796
1.0134,0.2634,0.086
0.9865,0.2595,0.0904
0.9579,0.2541,0.0936
0.9274,0.2465,0.0965
0.8978,0.2392,0.0999
0.871,0.2316,0.1043
0.8468,0.2228,0.109
0.8243,0.214,0.1121
0.8028,0.2042,0.116
0.7745,0.1849,0.1222
0.7573,0.1722,0.1256
0.7422,0.159,0.1287
0.7302,0.1461,0.1314
0.7195,0.1327,0.1341
0.7104,0.1192,0.1351
0.7048,0.1051,0.1356
0.7019,0.0909,0.1356
0.6999,0.0774,0.1356
0.6997,0.064,0.1341
0.7009,0.0511,0.1329
0.7026,0.0386,0.1317
0.7056,0.0274,0.1309
0.7117,0.0173,0.129
0.7185,0.0046,0.1275
0.7214,-0.0098,0.1268
0.7212,-0.0247,0.1246
0.72,-0.0366,0.1212
0.7187,-0.0472,0.1173
0.7205,-0.0559,0.1143
0.7234,-0.063,0.1114
0.7273,-0.0704,0.1099
0.7322,-0.0774,0.1112
0.7383,-0.0838,0.1124
0.7444,-0.0894,0.1138
0.7515,-0.0953,0.1165
0.7608,-0.1011,0.1195
0.7718,-0.1063,0.1212
0.7828,-0.1116,0.1231
0.7923,-0.1175,0.1236
0.7991,-0.1273,0.1234
0.7999,-0.1439,0.1202
0.8045,-0.1495,0.1207
0.8153,-0.1473,0.127
0.828,-0.1439,0.1363
0.8429,-0.141,0.1456
0.8587,-0.1388,0.1529
0.8739,-0.1358,0.1588
0.89,-0.1329,0.1632
0.9054,-0.1295,0.1683
0.9205,-0.1263,0.1732
0.9359,-0.1231,0.1761
0.9528,-0.1202,0.1779
0.9687,-0.117,0.1791
0.9828,-0.1153,0.1803
0.9958,-0.1116,0.1813
1.0092,-0.1063,0.1837
1.0214,-0.1014,0.1864
1.0317,-0.0963,0.1876
1.04,-0.0911,0.1871
1.0459,-0.0884,0.1871
1.0491,-0.0872,0.1864
1.0515,-0.085,0.1849
1.0532,-0.0823,0.1845
1.0525,-0.0789,0.1854
1.0495,-0.075,0.1881
1.0473,-0.0726,0.1901
1.0456,-0.0704,0.1923
1.0437,-0.0674,0.1957
1.0403,-0.0643,0.2001
1.0371,-0.0613,0.2052
1.0341,-0.0581,0.2099
1.031,-0.0555,0.2157
1.0276,-0.0533,0.2226
1.0246,-0.0513,0.2299
1.0214,-0.0498,0.2362
1.0166,-0.0484,0.2426
1.0126,-0.0481,0.2502
1.0097,-0.0481,0.2575
1.0063,-0.0484,0.2658
1.0029,-0.0491,0.2739
1.0004,-0.0501,0.2812
0.998,-0.0506,0.2875
0.996,-0.0523,0.2939
0.9936,-0.0545,0.299
0.9909,-0.0572,0.3044
0.9877,-0.0601,0.3098
0.9838,-0.0633,0.3144
0.9792,-0.0662,0.3181
0.9745,-0.0701,0.3205
0.9689,-0.0752,0.3232
0.9623,-0.0794,0.3249
0.9552,-0.0828,0.3242
0.9479,-0.086,0.3232
0.9408,-0.0897,0.323
0.9325,-0.0931,0.3227
0.9227,-0.096,0.3222
0.9127,-0.0985,0.3225
0.9017,-0.1011,0.3213
0.8905,-0.1046,0.3193
0.88,-0.108,0.3181
0.8688,-0.1112,0.3186
0.8585,-0.1143,0.3198
0.8485,-0.1165,0.321
0.8377,-0.12,0.324
0.8277,-0.1236,0.3274
0.8194,-0.1268,0.331
0.8133,-0.1307,0.3345
0.8067,-0.1331,0.3389
0.8011,-0.1353,0.3435
0.7962,-0.1368,0.3489
0.7925,-0.138,0.3542
0.7891,-0.1393,0.3586
0.7869,-0.1402,0.363
0.7864,-0.1402,0.3682
0.7876,-0.1395,0.3728
0.7901,-0.1385,0.3762
0.794,-0.1385,0.3794
0.7989,-0.1375,0.3833
0.8055,-0.1346,0.3862
0.8126,-0.1317,0.3877
0.8204,-0.128,0.3882
0.8297,-0.1241,0.3887
0.8397,-0.1197,0.3892
0.8495,-0.1151,0.3877
0.859,-0.1099,0.3858
0.869,-0.1041,0.3833
0.8805,-0.098,0.3814
0.8915,-0.0919,0.3799
0.8998,-0.0853,0.3784
0.9086,-0.0774,0.3762
0.9164,-0.0701,0.3743
0.9225,-0.0633,0.3743
0.9303,-0.0567,0.3748
0.9384,-0.0508,0.3743
0.946,-0.0452,0.3735
0.9533,-0.0401,0.3728
0.9604,-0.0354,0.3718
0.9679,-0.0313,0.3704
0.975,-0.0279,0.3687
0.9819,-0.0242,0.3679
0.9907,-0.0205,0.3667
0.9987,-0.0173,0.3647
1.0073,-0.0144,0.3633
1.0173,-0.012,0.3628
1.0268,-0.0095,0.3616
1.0359,-0.0066,0.3591
1.0451,-0.0039,0.3577
1.0542,-0.0007,0.356
1.0618,0.0029,0.3545
1.0691,0.0061,0.3523
1.0774,0.009,0.3506
1.0859,0.0122,0.3489
1.0938,0.0159,0.3459
1.1006,0.0203,0.3442
1.1072,0.0244,0.3435
1.1131,0.0291,0.344
1.1157,0.0337,0.345
1.1175,0.0381,0.3464
1.1182,0.0415,0.3494
1.1175,0.045,0.3528
1.114,0.0481,0.3572
1.1079,0.0503,0.3608
1.0996,0.0515,0.3645
1.0889,0.0515,0.3701
1.0762,0.0506,0.3755
1.062,0.0486,0.3811
1.0466,0.0452,0.386
1.0302,0.0406,0.3904
1.0134,0.0344,0.3953
0.996,0.0274,0.4007
0.9782,0.0186,0.4063
0.9604,0.0086,0.4124
0.9423,-0.0015,0.4185
0.9257,-0.012,0.4251
0.9105,-0.0242,0.4312
0.8961,-0.0366,0.4371
0.8822,-0.0484,0.4434
0.869,-0.0601,0.4507
0.8575,-0.0713,0.4583
0.8475,-0.0836,0.4652
0.8397,-0.096,0.4722
0.8326,-0.1073,0.4801
0.8272,-0.1158,0.4871
0.8243,-0.1231,0.493
0.8231,-0.1302,0.4989
0.8243,-0.1361,0.5047
0.8289,-0.1393,0.5121
0.8355,-0.1415,0.5192
0.8429,-0.1429,0.5253
0.8507,-0.1422,0.5311
0.8578,-0.1395,0.5367
0.8651,-0.1356,0.5404
0.8727,-0.1302,0.5441
0.8793,-0.1234,0.547
0.8863,-0.1148,0.5494
0.8917,-0.1043,0.5514
0.8946,-0.0921,0.5536
0.8993,-0.0796,0.5551
0.9056,-0.0679,0.5546
0.9176,-0.0528,0.5516
0.9252,-0.044,0.5494
0.932,-0.0357,0.5475
0.9374,-0.0276,0.5472
0.9428,-0.02,0.548
0.9494,-0.0176,0.546
0.956,-0.0117,0.5411
0.9645,0.0017,0.5377
0.9753,0.0169,0.5363
0.987,0.0288,0.5321
0.998,0.0398,0.5192
1.0085,0.0472,0.4972
1.0192,0.0489,0.4678
1.0307,0.0491,0.4336
1.0403,0.0474,0.397
1.0447,0.0364,0.3567
1.0527,0.0259,0.3152
1.0703,0.0225,0.2792
1.092,0.0208,0.2463
1.1135,0.0169,0.2147
1.1343,0.011,0.1825
1.1546,0.0039,0.149
1.1756,-0.0068,0.1134
1.1917,-0.0205,0.077
1.2039,-0.0366,0.0415
1.2232,-0.0481,0.0103
1.2477,-0.0599,-0.0156
1.276,-0.0718,-0.0369
1.307,-0.0845,-0.053
1.3393,-0.0958,-0.0655
1.3732,-0.1077,-0.0762
1.407,-0.12,-0.086
1.4397,-0.1319,-0.0945
1.4717,-0.1449,-0.1004
1.5018,-0.1573,-0.1041
1.5303,-0.1695,-0.109
1.5565,-0.1827,-0.117
1.5804,-0.1957,-0.1297
1.598,-0.2079,-0.1461
1.6066,-0.2189,-0.1656
1.6075,-0.2296,-0.1876
1.6022,-0.2404,-0.2111
1.5904,-0.2497,-0.2343
1.5733,-0.257,-0.2577
1.5523,-0.2641,-0.2797
1.5296,-0.268,-0.3
1.5054,-0.2704,-0.3188
1.4778,-0.2724,-0.3359
1.4485,-0.2736,-0.3491
1.4184,-0.2719,-0.3589
1.3857,-0.269,-0.3674
1.3495,-0.2624,-0.3748
1.3136,-0.2521,-0.3782
1.2794,-0.2409,-0.3772
1.245,-0.2282,-0.3733
1.2105,-0.214,-0.3682
1.1761,-0.2003,-0.3613
1.1458,-0.1901,-0.3516
1.1189,-0.1837,-0.3401
1.0891,-0.1749,-0.3291
1.0576,-0.1617,-0.3161
1.0258,-0.1468,-0.2995
0.9953,-0.1322,-0.2805
0.9684,-0.1175,-0.2592
0.9396,-0.0994,-0.2389
0.9083,-0.0799,-0.2209
0.8763,-0.0633,-0.2006
0.8451,-0.0501,-0.1747
0.8153,-0.0376,-0.1471
0.7884,-0.0237,-0.1197
0.7649,-0.009,-0.095
0.7439,0.0073,-0.0726
0.7258,0.0235,-0.0511
0.7102,0.0403,-0.0325
0.6943,0.0584,-0.0166
0.6772,0.0765,-0.0029
0.6616,0.0936,0.0107
0.6481,0.1097,0.0257
0.6389,0.1244,0.0408
0.6354,0.1368,0.0564
0.6403,0.1429,0.073
0.6574,0.1405,0.0897
0.6821,0.1307,0.1046
0.7092,0.1158,0.1173
0.7371,0.0987,0.1275
0.7642,0.0801,0.1361
0.7908,0.0616,0.1429
0.8187,0.044,0.1476
0.8468,0.0269,0.1515
0.8744,0.0095,0.1554
0.9005,-0.0066,0.1583
0.9249,-0.0205,0.1598
0.9486,-0.0344,0.1603
0.9699,-0.0496,0.16
0.9877,-0.0643,0.1588
1.0014,-0.0774,0.1554
1.0124,-0.0892,0.1507
1.02,-0.097,0.1446
1.0268,-0.1041,0.1393
1.0327,-0.1138,0.1336
1.0371,-0.1241,0.1253
1.0385,-0.1341,0.1153
1.0376,-0.1441,0.1041
1.0337,-0.1554,0.0936
1.0278,-0.1661,0.0843
1.0219,-0.1759,0.0757
1.0156,-0.1849,0.0677
1.0083,-0.1928,0.0601
1.0007,-0.2011,0.054
0.9921,-0.2096,0.0489
0.9833,-0.2172,0.0428
0.9748,-0.2231,0.0369
0.9655,-0.2287,0.033
0.9572,-0.2353,0.031
0.9501,-0.2406,0.0303
0.944,-0.245,0.03
0.9398,-0.2472,0.0315
0.9379,-0.246,0.0342
0.9379,-0.2431,0.0388
0.9403,-0.238,0.045
0.943,-0.2284,0.052
0.9464,-0.2167,0.0618
0.9506,-0.2052,0.0735
0.955,-0.1935,0.0848
0.9567,-0.1825,0.0943
0.9562,-0.1727,0.1024
0.9569,-0.1642,0.1094
0.9579,-0.1559,0.1163
0.9582,-0.1483,0.1231
0.9552,-0.14,0.1287
0.9504,-0.1314,0.1339
0.945,-0.1234,0.1397
0.9408,-0.1148,0.1454
0.9364,-0.106,0.1515
0.9308,-0.0967,0.1581
0.9242,-0.0875,0.1644
0.9181,-0.0782,0.1717
0.9127,-0.0677,0.1791
0.9078,-0.0581,0.1862
0.9022,-0.0493,0.1928
0.8976,-0.0408,0.2003
0.8925,-0.0325,0.2086
0.8861,-0.0244,0.2165
0.8788,-0.0169,0.225
0.8719,-0.0105,0.2328
0.8675,-0.0046,0.2397
0.8636,0.0012,0.2458
0.8597,0.0059,0.2509
0.8578,0.01,0.2546
0.8563,0.0137,0.257
0.8541,0.0161,0.2595
0.8534,0.0191,0.2621
0.8531,0.0215,0.2646
0.8536,0.023,0.2653
0.856,0.0239,0.2653
0.8585,0.0249,0.2653
0.8597,0.0247,0.2639
0.8631,0.0244,0.2619
0.8675,0.0235,0.2599
0.871,0.0217,0.2573
0.8749,0.0205,0.2541
0.8785,0.0178,0.2519
0.8819,0.0147,0.2504
0.8863,0.0117,0.2475
0.8915,0.0098,0.2438
0.8946,0.0081,0.2414
0.899,0.0056,0.2389
0.9025,0.0024,0.236
0.9059,-0.002,0.2333
0.9088,-0.0071,0.2299
0.911,-0.0115,0.226
0.9122,-0.0149,0.2226
0.9144,-0.0166,0.2209
0.9179,-0.0139,0.2201
0.9245,-0.0056,0.2218
0.9296,-0.0037,0.2231
0.9313,-0.0105,0.2172
0.9315,-0.0205,0.2077
0.9303,-0.0303,0.1981
0.9284,-0.0396,0.1906
0.9279,-0.0486,0.1852
0.9281,-0.0552,0.1801
0.9289,-0.0613,0.1759
0.9284,-0.066,0.172
0.9252,-0.0694,0.1691
0.9245,-0.0735,0.1691
0.9259,-0.0767,0.1713
0.9274,-0.0789,0.173
0.9274,-0.0811,0.1739
0.9269,-0.0831,0.1769
0.9274,-0.0821,0.1849
0.9274,-0.0777,0.1923
0.9279,-0.0721,0.2016
0.9291,-0.0652,0.2111
0.9301,-0.0581,0.2211
0.9311,-0.0513,0.2314
0.9301,-0.0454,0.2399
0.9293,-0.041,0.2485
0.9291,-0.0359,0.258
0.9271,-0.0315,0.2668
0.9235,-0.0281,0.2748
0.9191,-0.0252,0.2829
0.9152,-0.0225,0.2912
0.9113,-0.0195,0.2988
0.9061,-0.0166,0.3044
0.9,-0.0144,0.3088
0.8932,-0.0134,0.3117
0.8863,-0.0122,0.3139
0.8797,-0.0105,0.3147
0.8727,-0.009,0.3144
0.8663,-0.0078,0.3137
0.8612,-0.0068,0.3125
0.856,-0.0064,0.3115
0.8517,-0.0064,0.3095
0.846,-0.0076,0.3066
0.8404,-0.0083,0.3051
0.8348,-0.0086,0.3051
0.8302,-0.0093,0.3049
0.8255,-0.0103,0.3051
0.8211,-0.012,0.3068
0.8174,-0.0137,0.3086
0.8145,-0.0156,0.3105
0.8123,-0.0188,0.3122
0.8116,-0.022,0.3139
0.8113,-0.0252,0.3166
0.8121,-0.0281,0.32
0.8148,-0.0308,0.3232
0.8192,-0.0327,0.3264
0.825,-0.0325,0.3296
0.8316,-0.0322,0.3325
0.8365,-0.034,0.3335
0.8421,-0.0359,0.334
0.8502,-0.0366,0.3347
0.8617,-0.0359,0.3369
0.8746,-0.0344,0.3389
0.8895,-0.0332,0.3398
0.9054,-0.0313,0.3401
0.9223,-0.0296,0.3389
0.9394,-0.0281,0.3359
0.9572,-0.0257,0.3318
0.9755,-0.0232,0.3281
0.9931,-0.0208,0.3235
1.0105,-0.0176,0.3178
1.0273,-0.0134,0.3115
1.0432,-0.0093,0.3037
1.0576,-0.0051,0.2963
1.0691,-0.001,0.2885
1.0798,0.0032,0.2797
1.0901,0.0076,0.2709
1.0989,0.0122,0.2617
1.1055,0.0156,0.2521
1.1099,0.0178,0.2419
1.1118,0.02,0.2296
1.1128,0.0235,0.2165
1.1121,0.0261,0.2035
1.1099,0.0281,0.1913
1.1055,0.0286,0.1796
1.1001,0.0279,0.1676
1.0933,0.0264,0.1564
1.0859,0.0247,0.1468
1.0781,0.023,0.1395
1.0688,0.0193,0.1349
1.0593,0.0137,0.1329
1.0515,0.0073,0.1324
1.0439,0.001,0.1351
1.0351,-0.0054,0.1393
1.0273,-0.0112,0.1451
1.021,-0.0171,0.1534
1.0151,-0.0232,0.1639
1.0102,-0.0286,0.1764
1.0078,-0.0325,0.191
1.0068,-0.0369,0.2067
1.0063,-0.0413,0.2231
1.008,-0.0437,0.2406
1.0109,-0.0459,0.2599
1.0146,-0.0469,0.2783
1.0197,-0.0472,0.2949
1.0249,-0.0474,0.3117
1.029,-0.0469,0.3288
1.0327,-0.0464,0.3447
1.0363,-0.0472,0.3586
1.0395,-0.0459,0.3718
1.0422,-0.0432,0.385
1.0437,-0.042,0.3977
1.0447,-0.0415,0.409
1.0439,-0.0403,0.4185
1.0412,-0.0386,0.4263
1.0385,-0.0376,0.4322
1.0349,-0.0376,0.4363
1.0302,-0.0379,0.4385
1.0249,-0.0379,0.4405
1.0183,-0.0391,0.4422
1.0112,-0.0413,0.4434
1.0041,-0.0447,0.4449
0.996,-0.0484,0.4471
0.9882,-0.053,0.449
0.9806,-0.0579,0.4505
0.9748,-0.0652,0.4515
0.9687,-0.0748,0.4539
0.9613,-0.0877,0.4569
0.9545,-0.1038,0.4586
0.9489,-0.1212,0.461
0.9425,-0.1349,0.4617
0.9369,-0.1454,0.463
0.935,-0.1522,0.4656
0.9376,-0.1532,0.4691
0.9467,-0.1495,0.4735
0.9591,-0.1485,0.4749
0.9706,-0.1517,0.4674
0.9853,-0.1537,0.4544
1.0058,-0.1532,0.438
1.0332,-0.1505,0.4205
1.064,-0.1476,0.4026
1.0955,-0.1446,0.3838
1.1294,-0.1422,0.365
1.1666,-0.1388,0.3472
1.2081,-0.1356,0.3298
1.2533,-0.1322,0.3122
1.3022,-0.1283,0.2954
1.3547,-0.1258,0.2805
1.4052,-0.1207,0.2641
1.4497,-0.1109,0.247
1.4939,-0.1019,0.2277
1.5386,-0.0963,0.204
1.5819,-0.0926,0.1764
1.6158,-0.088,0.1454
1.6398,-0.0814,0.1104
1.6662,-0.0735,0.0772
1.6896,-0.0679,0.045
1.6935,-0.0645,-0.0017
1.6813,-0.0647,-0.0528
1.6842,-0.054,-0.0872
1.6918,-0.0349,-0.1226
1.7011,-0.0198,-0.1564
1.7099,-0.0083,-0.1852
1.7121,0.0037,-0.2135
1.7077,0.0171,-0.2436
1.7001,0.0291,-0.2719
1.6889,0.0391,-0.2966
1.6676,0.0467,-0.3198
1.629,0.0533,-0.3423
1.5748,0.0581,-0.3621
1.5096,0.0611,-0.3772
1.4382,0.063,-0.385
1.3647,0.066,-0.3845
1.2924,0.0704,-0.3745
1.2218,0.075,-0.355
1.1543,0.0789,-0.3279
1.0911,0.0843,-0.2963
1.0327,0.0911,-0.2599
0.9843,0.1019,-0.2182
0.9435,0.1129,-0.172
0.9032,0.1163,-0.1263
0.8617,0.1148,-0.084
0.8192,0.1116,-0.0467
0.7776,0.107,-0.0095
0.7371,0.0985,0.0308
0.6977,0.0906,0.0674
0.6613,0.0831,0.098
0.6281,0.0738,0.1251
0.6,0.0628,0.1502
0.5731,0.0501,0.1735
0.5443,0.0337,0.1952
0.5182,0.0147,0.2179
0.495,-0.0024,0.2389
0.474,-0.0178,0.2533
0.4561,-0.0325,0.2604
0.4424,-0.0457,0.2609
0.4322,-0.0577,0.2553
0.4263,-0.0694,0.2465
0.428,-0.077,0.238
0.4412,-0.0774,0.2311
0.4669,-0.0711,0.2257
0.5047,-0.0613,0.2216
0.5507,-0.0525,0.2189
0.6017,-0.0452,0.2174
0.6523,-0.0403,0.214
0.7004,-0.0398,0.2077
0.7451,-0.0435,0.1981
0.7864,-0.0474,0.1857
0.8258,-0.0501,0.1708
0.8629,-0.0525,0.1524
0.8966,-0.055,0.1317
0.9259,-0.0569,0.109
0.9506,-0.0581,0.087
0.9719,-0.0591,0.0677
0.9963,-0.0599,0.0423
1.0039,-0.0638,0.0257
1.0073,-0.0647,0.0117
1.0148,-0.0616,0.0032
1.0241,-0.0569,-0.001
1.0339,-0.0508,-0.0034
1.0434,-0.043,-0.0061
1.0515,-0.0347,-0.0105
1.0574,-0.0254,-0.0149
1.062,-0.0151,-0.0183
1.0654,-0.0049,-0.0205
1.0693,0.0059,-0.0205
1.0715,0.0171,-0.02
1.0732,0.0291,-0.0181
1.0759,0.0415,-0.0144
1.0776,0.0535,-0.009
1.0786,0.0662,-0.0034
1.0784,0.0796,0.0012
1.0776,0.0921,0.0064
1.0762,0.1036,0.0107
1.0735,0.1153,0.0139
1.0671,0.1263,0.0161
1.0583,0.1361,0.0171
1.0488,0.1444,0.0173
1.0366,0.1507,0.0164
1.0232,0.1568,0.0129
1.008,0.162,0.0098
0.9914,0.1639,0.0066
0.9736,0.1642,0.0024
0.955,0.1639,-0.0007
0.9357,0.1639,-0.0027
0.9159,0.1642,-0.0059
0.8964,0.1632,-0.0086
0.8773,0.1603,-0.01
0.8595,0.1566,-0.0122
0.8409,0.1549,-0.0125
0.8248,0.1529,-0.0098
0.8106,0.1507,-0.0068
0.7977,0.148,-0.0054
0.7859,0.1441,-0.0032
0.7754,0.141,0.001
0.7676,0.1371,0.0056
0.7605,0.1312,0.0105
0.7542,0.1229,0.0156
0.7486,0.1136,0.0208
0.7451,0.1043,0.0259
0.7429,0.0948,0.0325
0.7422,0.0828,0.041
0.7444,0.0672,0.0506
0.751,0.0511,0.0613
0.761,0.0354,0.0721
0.7723,0.0188,0.0833
0.7845,0.0002,0.0943
0.7974,-0.0183,0.1038
0.8111,-0.0344,0.1129
0.8255,-0.0481,0.1207
0.8414,-0.0606,0.1278
0.856,-0.0718,0.1346
0.8702,-0.0833,0.1415
0.8841,-0.0926,0.1485
0.8956,-0.1004,0.1559
0.9049,-0.1082,0.1605
0.9142,-0.1134,0.1647
0.9223,-0.1165,0.1688
0.9289,-0.1182,0.1708
0.9337,-0.119,0.1722
0.9379,-0.1195,0.1735
0.9425,-0.1187,0.1749
0.9472,-0.1163,0.1754
0.9516,-0.1131,0.1757
0.9567,-0.1109,0.1759
0.9618,-0.108,0.1764
0.9665,-0.1041,0.1779
0.9709,-0.1004,0.1798
0.9753,-0.098,0.1827
0.9802,-0.0945,0.1862
0.9858,-0.0909,0.1891
0.9894,-0.086,0.193
0.9914,-0.0811,0.1979
0.9926,-0.0789,0.2038
0.9931,-0.0765,0.2108
0.9924,-0.074,0.2179
0.9907,-0.0716,0.2248
0.9885,-0.0691,0.2311
0.9853,-0.066,0.236
0.9814,-0.0628,0.2411
0.977,-0.0594,0.2458
0.9738,-0.0555,0.2504
0.9699,-0.0525,0.2555
0.965,-0.0506,0.2609
0.9601,-0.0474,0.2668
0.956,-0.0437,0.2724
0.9518,-0.0408,0.2775
0.9482,-0.0396,0.2832
0.9469,-0.0381,0.2897
0.9464,-0.0374,0.2956
0.944,-0.0374,0.3003
0.9413,-0.0381,0.3046
0.9379,-0.0398,0.31
0.935,-0.0425,0.3154
0.9323,-0.0447,0.3213
0.9308,-0.0479,0.3261
0.9308,-0.0511,0.3293
0.9308,-0.0537,0.3313
0.9298,-0.0572,0.3318
0.9281,-0.0601,0.333
0.9249,-0.0628,0.3345
0.9203,-0.0647,0.3352
0.9152,-0.0657,0.3359
0.9088,-0.0662,0.3374
0.9008,-0.0667,0.3379
0.8915,-0.0677,0.3386
0.8817,-0.0684,0.3413
0.8712,-0.0694,0.345
0.8612,-0.0716,0.3489
0.8517,-0.0745,0.3518
0.8419,-0.0767,0.3538
0.8324,-0.0784,0.3552
0.8238,-0.0806,0.3562
0.8153,-0.0833,0.3577
0.8067,-0.0858,0.3582
0.8003,-0.0889,0.3586
0.7952,-0.0914,0.3591
0.7908,-0.0921,0.3591
0.7869,-0.0926,0.3591
0.7847,-0.0938,0.3604
0.783,-0.0945,0.363
0.7828,-0.0945,0.3657
0.7845,-0.0941,0.3687
0.7862,-0.0938,0.3721
0.7874,-0.0916,0.3753
0.7891,-0.0882,0.3779
0.7918,-0.084,0.3797
0.7964,-0.0801,0.3809
0.8025,-0.0765,0.3806
0.8089,-0.073,0.3801
0.8162,-0.0699,0.3797
0.8231,-0.0669,0.3787
0.8297,-0.0633,0.3782
0.838,-0.0599,0.3789
0.8475,-0.0562,0.3794
0.8565,-0.053,0.3806
0.8651,-0.0496,0.3823
0.8739,-0.0467,0.3845
0.8829,-0.0445,0.3865
0.8927,-0.0418,0.387
0.9027,-0.0388,0.3867
0.9122,-0.0349,0.3858
0.9218,-0.0315,0.3836
0.9298,-0.0279,0.3809
0.9376,-0.0227,0.3775
0.9469,-0.0169,0.3738
0.9565,-0.0107,0.3696
0.9653,-0.0054,0.3662
0.9736,0.0007,0.3618
0.9811,0.0056,0.3564
0.9877,0.011,0.3503
0.9938,0.0166,0.3435
1.0007,0.023,0.3379
1.0073,0.0293,0.333
1.0148,0.0364,0.3291
1.0232,0.0437,0.3264
1.0302,0.0506,0.3249
1.0371,0.0572,0.3237
1.0439,0.0628,0.3227
1.0495,0.0684,0.3222
1.0547,0.0738,0.3227
1.0598,0.0794,0.324
1.0632,0.0838,0.3264
1.0654,0.0882,0.3288
1.0659,0.0921,0.3315
1.0652,0.0948,0.334
1.064,0.0972,0.3362
1.0622,0.0997,0.3386
1.0583,0.1019,0.3418
1.0537,0.1033,0.3447
1.0483,0.1038,0.3472
1.0422,0.1041,0.3496
1.0354,0.1033,0.3508
1.0276,0.1009,0.352
1.0183,0.0985,0.3535
1.0083,0.096,0.3545
0.9973,0.0933,0.355
0.9872,0.0899,0.3569
0.9772,0.0872,0.3594
0.9677,0.0845,0.3621
0.9579,0.0814,0.365
0.9469,0.0772,0.3679
0.932,0.0718,0.3716
0.923,0.0689,0.3755
0.9139,0.0657,0.3787
0.9054,0.0623,0.3797
0.8978,0.0594,0.3814
0.89,0.0569,0.3833
0.8824,0.0542,0.3848
0.8751,0.0525,0.3858
0.8668,0.0523,0.3872
0.8597,0.0552,0.3889
0.8551,0.0589,0.3911
0.8531,0.0625,0.3928
0.8551,0.0665,0.3936
0.8617,0.0694,0.3938
0.8724,0.0699,0.3928
0.8876,0.0682,0.3921
0.9054,0.065,0.3921
0.9257,0.0613,0.3924
0.9477,0.0564,0.3926
0.9719,0.0523,0.3936
0.9973,0.0489,0.3955
1.0244,0.0454,0.3946
1.0522,0.0408,0.3904
1.0808,0.0362,0.3833
1.1101,0.0318,0.3716
1.1394,0.0252,0.3572
1.1683,0.0171,0.3384
1.1971,0.0071,0.3164
1.2252,-0.0076,0.2895
1.2457,-0.0298,0.257
1.2614,-0.0542,0.2223
1.2763,-0.0726,0.1932
1.2929,-0.0897,0.1676
1.3171,-0.1065,0.1429
1.3442,-0.1219,0.117
1.3698,-0.1388,0.0899
1.3947,-0.1586,0.0603
1.4197,-0.1786,0.0305
1.4453,-0.1984,0.0005
1.4697,-0.2179,-0.0308
1.4898,-0.2355,-0.0647
1.5047,-0.2511,-0.0985
1.5154,-0.2607,-0.1268
1.5306,-0.2609,-0.1429
1.5511,-0.2658,-0.1505
1.5619,-0.2763,-0.1593
1.5609,-0.2846,-0.1747
1.5597,-0.2949,-0.193
1.5579,-0.3076,-0.2103
1.5545,-0.3183,-0.2231
1.5491,-0.3264,-0.2306
1.5428,-0.3318,-0.2343
1.5352,-0.3349,-0.2348
1.5259,-0.3362,-0.2318
1.5125,-0.3369,-0.2248
1.4971,-0.3337,-0.2138
1.4805,-0.3276,-0.2006
1.4614,-0.3178,-0.1891
1.439,-0.3059,-0.1815
1.4101,-0.2993,-0.1783
1.375,-0.2934,-0.1771
1.342,-0.279,-0.1737
1.3114,-0.2575,-0.1686
1.2816,-0.2355,-0.1637
1.2504,-0.2138,-0.1595
1.2166,-0.1896,-0.1576
1.1802,-0.1637,-0.1573
1.1434,-0.1366,-0.1588
1.1087,-0.1097,-0.1595
1.0745,-0.0816,-0.1612
1.0393,-0.0501,-0.1652
1.0048,-0.0188,-0.1664
0.9709,0.012,-0.1644
0.9391,0.041,-0.1595
0.91,0.0694,-0.1537
0.8827,0.0989,-0.1507
0.8546,0.1268,-0.148
0.8253,0.1515,-0.1417
0.7989,0.1747,-0.1295
0.7791,0.1974,-0.1134
0.7639,0.2194,-0.0943
0.7539,0.2399,-0.0745
0.7488,0.2604,-0.0547
0.7481,0.2824,-0.0327
0.7532,0.3032,-0.0083
0.7654,0.3186,0.0166
0.782,0.3249,0.041
0.8011,0.3196,0.0623
0.817,0.3029,0.0774
0.8277,0.2775,0.0858
0.8341,0.2494,0.0894
0.8387,0.2218,0.0916
0.8451,0.1947,0.0941
0.8541,0.1693,0.0958
0.8644,0.1454,0.0982
0.8768,0.1222,0.1007
0.8917,0.1007,0.1043
0.9061,0.0792,0.1077
0.9201,0.0564,0.1107
0.9345,0.033,0.1134
0.9479,0.0122,0.1143
0.9611,-0.0059,0.116
0.9753,-0.0205,0.118
0.988,-0.0342,0.1187
0.9982,-0.0525,0.1173
1.0073,-0.0721,0.1146
1.0146,-0.0916,0.1102
1.018,-0.1099,0.1063
1.0202,-0.1292,0.1031
1.0205,-0.1471,0.0989
1.0185,-0.1634,0.0928
1.0148,-0.1796,0.087
1.0109,-0.1952,0.0816
1.0068,-0.2106,0.0757
1.0021,-0.2243,0.0706
0.9951,-0.2365,0.0655
0.9863,-0.2475,0.0594
0.977,-0.2568,0.053
0.9672,-0.2651,0.0479
0.9582,-0.2726,0.0452
0.9494,-0.2785,0.045
0.9401,-0.2824,0.0445
0.9296,-0.2853,0.044
0.9196,-0.2856,0.045
0.9086,-0.2846,0.0469
0.899,-0.2846,0.0498
0.8895,-0.2839,0.0537
0.8775,-0.2817,0.0584
0.8661,-0.2785,0.0623
0.8573,-0.2736,0.0679
0.8495,-0.27,0.0752
0.8404,-0.2682,0.0821
0.8319,-0.2663,0.0882
0.824,-0.2619,0.0953
0.8162,-0.2551,0.1038
0.8121,-0.2455,0.1141
0.8089,-0.235,0.1256
0.8021,-0.2301,0.1346
0.794,-0.2262,0.1412
0.7879,-0.2199,0.1471
0.7835,-0.2113,0.1532
0.7806,-0.2016,0.1605
0.7781,-0.1906,0.1669
0.7759,-0.1761,0.1727
0.7757,-0.1598,0.1793
0.7779,-0.1419,0.1862
0.782,-0.1236,0.192
0.7859,-0.1043,0.1974
0.7891,-0.0848,0.2016
0.793,-0.0669,0.204
0.7957,-0.0501,0.2052
0.7977,-0.0357,0.2038
0.7989,-0.022,0.2011
0.7999,-0.0078,0.1967
0.8021,0.0046,0.1901
0.8043,0.0147,0.1837
0.8067,0.0247,0.1769
0.8104,0.0344,0.1683
0.8148,0.043,0.1603
0.8187,0.0511,0.1522
0.8236,0.0586,0.1439
0.8302,0.064,0.1358
0.8367,0.0691,0.1285
0.8431,0.0755,0.1214
0.8499,0.0814,0.1156
0.8582,0.0853,0.1104
0.8678,0.088,0.1068
0.8783,0.0904,0.1043
0.8873,0.0919,0.1014
0.8961,0.0928,0.0992
0.9052,0.0928,0.0997
0.9152,0.0911,0.1024
0.9242,0.0892,0.1063
0.9328,0.0862,0.1112
0.9416,0.0826,0.1151
0.9511,0.0782,0.12
0.9618,0.0721,0.1263
0.9704,0.065,0.1341
0.9772,0.0579,0.1417
0.9843,0.0501,0.151
0.9914,0.0403,0.1615
0.9977,0.0298,0.1705
1.0009,0.0203,0.1761
1.0036,0.01,0.1832
1.0065,-0.001,0.1918
1.0083,-0.0117,0.1996
1.0097,-0.02,0.2064
1.0144,-0.0247,0.2145
1.021,-0.0252,0.227
1.0256,-0.0303,0.2382
1.0254,-0.0386,0.2448
1.0224,-0.0464,0.2477
1.019,-0.054,0.2507
1.0144,-0.0613,0.2543
1.0085,-0.0696,0.2565
1.0034,-0.077,0.259
0.9995,-0.0843,0.2614
0.9958,-0.0904,0.2629
0.9875,-0.0987,0.2651
0.9789,-0.1031,0.266
0.9694,-0.1063,0.2663
0.9601,-0.109,0.2675
0.9496,-0.1112,0.268
0.9381,-0.1134,0.2675
0.9276,-0.1136,0.2668
0.9179,-0.1143,0.2653
0.9052,-0.1151,0.2641
0.8917,-0.1146,0.2646
0.8788,-0.1114,0.2658
0.8668,-0.1065,0.267
0.8556,-0.0997,0.2692
0.8451,-0.0923,0.2719
0.8353,-0.0848,0.2763
0.8262,-0.0767,0.2807
0.8184,-0.0682,0.2856
0.8113,-0.0606,0.2912
0.8052,-0.0537,0.2966
0.8011,-0.0459,0.3022
0.7994,-0.0359,0.309
0.7957,-0.0291,0.3142
0.7886,-0.0254,0.3161
0.7806,-0.0235,0.3174
0.7737,-0.0215,0.32
0.7676,-0.0191,0.3232
0.7625,-0.0164,0.3259
0.7583,-0.0132,0.3276
0.7554,-0.0105,0.3291
0.7537,-0.0083,0.3323
0.7532,-0.0068,0.3359
0.7542,-0.0051,0.3391
0.7566,-0.0042,0.3415
0.7603,-0.0032,0.344
0.7666,-0.0024,0.3457
0.774,0.0002,0.3452
0.783,0.0029,0.3437
0.7952,0.0049,0.3418
0.8087,0.0073,0.3391
0.8233,0.009,0.3362
0.8397,0.011,0.3342
0.8563,0.0132,0.3325
0.8727,0.0161,0.3296
0.8907,0.0195,0.3266
0.9088,0.0225,0.3244
0.9267,0.0259,0.322
0.9447,0.0288,0.3186
0.9631,0.0315,0.3144
0.9802,0.0347,0.31
0.9963,0.0369,0.3051
1.0126,0.0384,0.2995
1.029,0.0413,0.2944
1.0434,0.0447,0.2907
1.0559,0.0472,0.2863
1.0676,0.0503,0.2824
1.0796,0.054,0.2775
1.0891,0.0577,0.2714
1.0962,0.0611,0.2639
1.1028,0.0647,0.2551
1.1092,0.0682,0.2443
1.1162,0.0706,0.2326
1.1241,0.0716,0.2223
1.1297,0.0728,0.2125
1.135,0.0733,0.2018
1.1399,0.074,0.1913
1.1441,0.0743,0.1835
1.147,0.0743,0.1774
1.149,0.0738,0.1717
1.1497,0.0728,0.1678
1.1504,0.0701,0.1659
1.1507,0.0674,0.1661
1.149,0.0655,0.1676
1.1443,0.0635,0.1717
1.139,0.0608,0.1791
1.1324,0.0594,0.1881
1.1243,0.0579,0.1989
1.1153,0.0569,0.2106
1.106,0.0564,0.2223
1.0969,0.0559,0.2353
1.0877,0.0559,0.2477
1.0786,0.0555,0.2612
1.0708,0.0547,0.2751
1.0647,0.0535,0.2897
1.0605,0.0533,0.3044
1.0578,0.0513,0.3186
1.0542,0.0496,0.3323
1.05,0.0474,0.3452
1.0469,0.0447,0.3567
1.0432,0.0423,0.3672
1.039,0.0388,0.3762
1.0334,0.0342,0.3836
1.0285,0.0286,0.3894
1.0234,0.023,0.3936
1.0173,0.0171,0.3968
1.0105,0.0103,0.3997
1.0041,0.0032,0.4012
0.9973,-0.0042,0.4024
0.9914,-0.012,0.4029
0.985,-0.02,0.4012
0.9789,-0.0283,0.3982
0.9743,-0.0364,0.395
0.9716,-0.0437,0.3914
0.9711,-0.0511,0.3848
0.9726,-0.0581,0.3757
0.9748,-0.0655,0.3643
0.9789,-0.0721,0.3518
0.9872,-0.0784,0.3381
0.9977,-0.086,0.3225
1.0092,-0.0941,0.3068
1.0239,-0.1009,0.291
1.0415,-0.1068,0.2751
1.0613,-0.1134,0.2587
1.0835,-0.1207,0.2424
1.1077,-0.1275,0.2267
1.1336,-0.1327,0.2116
1.1602,-0.1375,0.1979
1.1925,-0.1424,0.1837
1.2289,-0.1461,0.1715
1.2667,-0.1495,0.1627
1.3063,-0.1524,0.1529
1.3456,-0.1549,0.1407
1.3842,-0.1588,0.1273
1.4216,-0.1625,0.1136
1.4568,-0.1632,0.1002
1.4934,-0.1649,0.0875
1.5311,-0.1703,0.074
1.5631,-0.1771,0.0559
1.5953,-0.1835,0.0393
1.6386,-0.1925,0.0254
1.6833,-0.203,0.0046
1.7114,-0.2138,-0.0244
1.7106,-0.2255,-0.063
1.7013,-0.2333,-0.0975
1.7045,-0.2301,-0.1219
1.7048,-0.2201,-0.1566
1.6965,-0.2101,-0.1976
1.6977,-0.2057,-0.216
1.7028,-0.2016,-0.2194
1.7016,-0.1935,-0.2218
1.6928,-0.1835,-0.2279
1.6769,-0.1737,-0.2365
1.6522,-0.1649,-0.2485
1.6146,-0.1571,-0.2621
1.5606,-0.1459,-0.2768
1.4942,-0.1309,-0.2883
1.4228,-0.1136,-0.2954
1.351,-0.0958,-0.2971
1.2802,-0.0796,-0.2919
1.2115,-0.0657,-0.2805
1.1482,-0.0498,-0.2614
1.0928,-0.0322,-0.2372
1.0407,-0.0213,-0.2135
0.9897,-0.0183,-0.1908
0.9394,-0.0188,-0.1686
0.8922,-0.0203,-0.1454
0.8495,-0.022,-0.1182
0.8094,-0.0247,-0.0882
0.771,-0.0279,-0.0596
0.7368,-0.031,-0.0332
0.7065,-0.0354,-0.0061
0.6814,-0.042,0.0237
0.6604,-0.0496,0.0559
0.6384,-0.0618,0.0899
0.6144,-0.0774,0.1248
0.5907,-0.0899,0.1546
0.5685,-0.0989,0.1776
0.548,-0.1063,0.1959
0.5299,-0.1148,0.2116
0.5157,-0.1239,0.2277
0.5074,-0.1295,0.2465
0.5074,-0.1287,0.2665
0.5177,-0.1207,0.2868
0.5399,-0.1073,0.3068
0.5729,-0.0926,0.3259
0.6125,-0.0796,0.3423
0.6545,-0.0689,0.3535
0.6965,-0.0608,0.3599
0.7383,-0.0533,0.3594
0.7784,-0.045,0.3528
0.8162,-0.0369,0.3396
0.8509,-0.0305,0.3222
0.8834,-0.0252,0.3022
0.9149,-0.0198,0.278
0.9435,-0.0149,0.2507
0.9697,-0.0117,0.2206
0.9926,-0.0107,0.1898
1.0131,-0.0086,0.1598
1.0324,-0.0061,0.13
1.0481,-0.0039,0.0999
1.062,0.0,0.0738
1.074,0.0061,0.0513
1.0842,0.0122,0.03
1.0928,0.0178,0.0107
1.0991,0.0237,-0.0073
1.1062,0.0332,-0.0313
1.1099,0.0401,-0.045
1.1128,0.0467,-0.0562
1.1145,0.0535,-0.066
1.1148,0.0608,-0.073
1.1126,0.0672,-0.0779
1.1079,0.0718,-0.0804
1.1035,0.0787,-0.0782
1.0979,0.0848,-0.0728
1.0889,0.088,-0.066
1.0754,0.0906,-0.0564
1.0576,0.0906,-0.0459
1.0378,0.0884,-0.0335
1.0158,0.0843,-0.0195
0.9916,0.0794,-0.0051
0.9675,0.0755,0.0098
0.945,0.0718,0.0249
0.924,0.0665,0.0406
0.9032,0.0606,0.055
0.8827,0.055,0.0679
0.8641,0.0489,0.0809
0.8465,0.043,0.0928
0.8306,0.0366,0.1036
0.8155,0.0293,0.1134
0.8013,0.021,0.1236
0.7886,0.0117,0.1317
0.7771,0.0032,0.1375
0.7671,-0.0042,0.1422
0.7583,-0.0112,0.1459
0.7512,-0.0198,0.1483
0.7442,-0.0286,0.1498
0.7388,-0.0374,0.15
0.7349,-0.0447,0.1495
0.7315,-0.0508,0.1493
0.7288,-0.0564,0.1476
0.7271,-0.0623,0.1463
0.7258,-0.0682,0.1441
0.7236,-0.0728,0.1415
0.7217,-0.0762,0.1395
0.72,-0.0789,0.1393
0.7185,-0.0809,0.1393
0.7163,-0.0828,0.1397
0.7134,-0.085,0.1422
0.7107,-0.087,0.1456
0.7082,-0.0887,0.1495
0.7056,-0.0906,0.1529
0.7021,-0.0914,0.1561
0.6987,-0.0923,0.159
0.6951,-0.0936,0.162
0.6931,-0.0948,0.1647
0.6907,-0.0953,0.1678
0.6882,-0.0958,0.1715
0.6865,-0.0965,0.1757
0.6841,-0.0975,0.1798
0.6826,-0.0982,0.183
0.6828,-0.0992,0.1847
0.6833,-0.0997,0.1849
0.6833,-0.0989,0.1847
0.6845,-0.0982,0.1842
0.6872,-0.0975,0.1827
0.6902,-0.0965,0.1803
0.6924,-0.095,0.1779
0.697,-0.0945,0.1759
0.7036,-0.0938,0.1735
0.7119,-0.0923,0.171
0.7219,-0.0904,0.1686
0.7332,-0.0889,0.1654
0.7449,-0.0875,0.1625
0.7569,-0.086,0.1605
0.7703,-0.0845,0.1583
0.7842,-0.0831,0.1561
0.7981,-0.0809,0.1539
0.8118,-0.0779,0.152
0.8258,-0.0755,0.1507
0.8409,-0.0738,0.15
0.8548,-0.0711,0.1502
0.8673,-0.0696,0.1507
0.8785,-0.0687,0.1522
0.8873,-0.0691,0.1527
0.8959,-0.0677,0.1529
0.9074,-0.0633,0.1554
0.9188,-0.0596,0.1571
0.9276,-0.0577,0.1593
0.9352,-0.0552,0.1622
0.9477,-0.0472,0.1678
0.9599,-0.0428,0.1739
0.9699,-0.0403,0.1781
0.9828,-0.0327,0.1842
0.9953,-0.0279,0.1901
1.0026,-0.0286,0.1925
1.0085,-0.0271,0.1942
1.0192,-0.02,0.1991
1.0302,-0.0149,0.2045
1.0381,-0.012,0.2084
1.0437,-0.0105,0.2113
1.0478,-0.0105,0.2138
1.0493,-0.011,0.2147
1.0471,-0.0127,0.216
1.0432,-0.0156,0.2179
1.0385,-0.0188,0.2206
1.0327,-0.0222,0.2228
1.0244,-0.0244,0.2248
1.0156,-0.0279,0.2277
1.0063,-0.0327,0.2311
0.9968,-0.0379,0.235
0.9853,-0.0428,0.2387
0.9733,-0.0472,0.2416
0.9616,-0.0513,0.2458
0.9499,-0.0557,0.2497
0.9394,-0.0599,0.2536
0.9293,-0.0643,0.258
0.9186,-0.0682,0.2621
0.9083,-0.0718,0.2663
0.8988,-0.075,0.2697
0.8907,-0.0784,0.2741
0.8834,-0.0816,0.28
0.8771,-0.0848,0.2858
0.8707,-0.0872,0.2915
0.8639,-0.0894,0.2971
0.859,-0.0911,0.3029
0.8558,-0.0919,0.3083
0.8534,-0.0923,0.3132
0.8517,-0.0926,0.3191
0.8517,-0.0928,0.3254
0.8534,-0.0926,0.3325
0.856,-0.0919,0.3393
0.8607,-0.0904,0.3457
0.8673,-0.0884,0.3513
0.8744,-0.087,0.3577
0.8829,-0.0855,0.3628
0.8915,-0.0843,0.3672
0.901,-0.084,0.3713
0.912,-0.0836,0.375
0.9237,-0.0821,0.3772
0.9367,-0.0806,0.3787
0.9499,-0.0796,0.3801
0.9635,-0.0789,0.3816
0.9762,-0.0779,0.3821
0.9887,-0.0752,0.3814
1.0017,-0.0726,0.3797
1.0136,-0.0699,0.3777
1.0254,-0.0677,0.3738
1.0356,-0.0662,0.3701
1.0449,-0.0635,0.3684
1.0544,-0.0616,0.3667
1.0627,-0.0606,0.3618
1.0688,-0.0589,0.3557
1.0745,-0.0581,0.3511
1.0803,-0.0577,0.3469
1.0845,-0.0567,0.3423
1.0869,-0.0552,0.3384
1.0884,-0.0545,0.334
1.0903,-0.0542,0.3291
1.0913,-0.0547,0.3249
1.0903,-0.054,0.3203
1.0881,-0.0537,0.3161
1.0859,-0.054,0.3117
1.0833,-0.0533,0.3064
1.0803,-0.0518,0.302
1.0776,-0.0506,0.2988
1.0749,-0.0496,0.2956
1.0713,-0.0489,0.2934
1.0688,-0.0462,0.2927
1.0662,-0.0432,0.2934
1.0642,-0.0406,0.2954
1.063,-0.0374,0.2983
1.062,-0.0325,0.3022
1.061,-0.0271,0.3081
1.0615,-0.0217,0.3154
1.0627,-0.0147,0.3232
1.0637,-0.0059,0.3325
1.0642,0.0032,0.342
1.0644,0.0127,0.3523
1.0635,0.0266,0.3687
1.0613,0.0352,0.3775
1.0576,0.0437,0.3848
1.0537,0.0511,0.3916
1.0493,0.0586,0.3972
1.0454,0.0662,0.4007
1.0417,0.0726,0.4048
1.0388,0.0762,0.4075
1.0354,0.0772,0.4102
1.031,0.0765,0.4124
1.0258,0.075,0.4134
1.0192,0.073,0.4139
1.0117,0.0687,0.4112
1.0046,0.0628,0.407
0.999,0.0552,0.4046
0.9919,0.0464,0.4036
0.9848,0.0379,0.4014
0.9794,0.0288,0.3987
0.9758,0.0193,0.3972
0.9719,0.0081,0.3968
0.9689,-0.0032,0.3948
0.967,-0.0134,0.3924
0.9657,-0.0232,0.3899
0.9655,-0.0322,0.387
0.9655,-0.0403,0.385
0.9679,-0.0484,0.3848
0.9726,-0.0547,0.3845
0.9787,-0.0589,0.387
0.9855,-0.0616,0.3924
0.9941,-0.0618,0.3992
1.007,-0.0616,0.4058
1.0224,-0.0623,0.4114
1.0385,-0.0635,0.4168
1.0547,-0.0665,0.4222
1.0701,-0.0701,0.4285
1.0855,-0.0726,0.4351
1.1006,-0.0738,0.4415
1.117,-0.0738,0.4476
1.1331,-0.0723,0.452
1.1495,-0.0694,0.4534
1.1661,-0.0662,0.4507
1.182,-0.0621,0.4434
1.1971,-0.0572,0.4307
1.2115,-0.052,0.4131
1.2264,-0.0472,0.3914
1.2413,-0.0442,0.3669
1.2555,-0.042,0.3401
1.2689,-0.0413,0.312
1.2794,-0.0432,0.2814
1.2885,-0.0452,0.2507
1.296,-0.0467,0.2204
1.3,-0.0515,0.1893
1.2946,-0.066,0.1554
1.2887,-0.0792,0.1217
1.2892,-0.0867,0.0928
1.289,-0.0921,0.0669
1.2863,-0.0967,0.043
1.2804,-0.1038,0.0188
1.2636,-0.1187,-0.0056
1.2462,-0.1322,-0.0247
1.2418,-0.1346,-0.0403
1.2359,-0.1395,-0.0577
1.2247,-0.1502,-0.0735
1.2198,-0.1537,-0.0838
1.2166,-0.1564,-0.0931
1.2025,-0.1676,-0.1055
1.1876,-0.1759,-0.1173
1.1751,-0.1791,-0.1261
1.1619,-0.1827,-0.1358
1.1482,-0.1864,-0.1454
1.1324,-0.1893,-0.1544
1.114,-0.1915,-0.163
1.094,-0.1925,-0.1698
1.0735,-0.194,-0.1761
1.0527,-0.1942,-0.1827
1.0315,-0.1932,-0.1893
1.0124,-0.1923,-0.1962
0.9921,-0.1884,-0.2028
0.9706,-0.182,-0.2069
0.9484,-0.1735,-0.2099
0.9269,-0.1634,-0.2125
0.9078,-0.1529,-0.2157
0.8895,-0.1397,-0.2189
0.8717,-0.1253,-0.2206
0.8565,-0.1107,-0.2191
0.8482,-0.0945,-0.2138
0.8363,-0.0794,-0.2121
0.8165,-0.0704,-0.2077
0.7938,-0.0603,-0.2025
0.771,-0.0403,-0.2069
0.7532,-0.0161,-0.2157
0.739,0.0051,-0.2189
0.7275,0.0222,-0.2155
0.7168,0.0393,-0.2121
0.7104,0.0584,-0.2096
0.7082,0.0792,-0.2064
0.71,0.0994,-0.1998
0.7161,0.1195,-0.193
0.7251,0.1412,-0.1915
0.7344,0.1642,-0.1925
0.7446,0.1847,-0.1886
0.7605,0.2025,-0.1771
0.7835,0.2167,-0.1598
0.8143,0.2253,-0.1402
0.8499,0.2274,-0.12
0.889,0.2233,-0.0994
0.9306,0.2123,-0.0801
0.9726,0.1974,-0.0643
1.009,0.1803,-0.0518
1.0346,0.1581,-0.0435
1.0561,0.1334,-0.0384
1.0815,0.1109,-0.0313
1.1101,0.0892,-0.0225
1.1385,0.0665,-0.012
1.1668,0.042,0.0017
1.1959,0.0183,0.0159
1.2237,-0.0037,0.0281
1.2496,-0.0252,0.0391
1.2753,-0.0479,0.0472
1.299,-0.0708,0.0537
1.3183,-0.095,0.0603
1.3351,-0.1197,0.0655
1.3495,-0.1449,0.0691
1.3603,-0.1703,0.0716
1.3679,-0.1964,0.0721
1.3715,-0.2228,0.0704
1.3698,-0.2482,0.0672
1.3642,-0.2729,0.063
1.3542,-0.2983,0.0589
1.3412,-0.3225,0.0555
1.3261,-0.3454,0.0523
1.3063,-0.366,0.0484
1.2848,-0.3848,0.0457
1.2645,-0.4033,0.044
1.2416,-0.42,0.0408
1.2162,-0.4336,0.0379
1.1895,-0.4461,0.0347
1.1619,-0.4571,0.0332
1.1346,-0.4676,0.0337
1.106,-0.4749,0.0357
1.0767,-0.4779,0.0403
1.0483,-0.4793,0.0476
1.0197,-0.4803,0.0559
0.9909,-0.4796,0.0638
0.9638,-0.4762,0.0706
0.9386,-0.4722,0.0772
0.9149,-0.4688,0.0845
0.8927,-0.4664,0.0923
0.8722,-0.4639,0.1011
0.8543,-0.4588,0.1126
0.8392,-0.45,0.1251
0.8233,-0.4439,0.1363
0.806,-0.4402,0.1463
0.7876,-0.4344,0.1568
0.772,-0.4273,0.1693
0.7591,-0.4209,0.1837
0.7481,-0.4129,0.1981
0.7393,-0.4033,0.2128
0.7337,-0.3933,0.2243
0.7312,-0.3816,0.2328
0.7315,-0.3674,0.2409
0.7356,-0.3494,0.2487
0.7444,-0.3281,0.2568
0.7578,-0.3046,0.2653
0.7735,-0.2797,0.2739
0.7891,-0.2538,0.2819
0.804,-0.2282,0.2878
0.8162,-0.205,0.2915
0.8267,-0.1832,0.2934
0.836,-0.1632,0.2937
0.8441,-0.1444,0.2937
0.8526,-0.1278,0.2929
0.8609,-0.1121,0.2907
0.8695,-0.0965,0.2878
0.8783,-0.0816,0.2836
0.8873,-0.0667,0.2768
0.8951,-0.053,0.2692
0.903,-0.0403,0.2604
0.9118,-0.0283,0.2519
0.9208,-0.0178,0.2426
0.9301,-0.0083,0.2306
0.9381,0.0015,0.2167
0.9447,0.0105,0.203
0.9506,0.0173,0.1893
0.9577,0.0237,0.1749
0.9635,0.0303,0.1603
0.9682,0.0354,0.1459
0.9728,0.0388,0.1319
0.9787,0.0418,0.1197
0.9833,0.0437,0.1068
0.9872,0.045,0.0943
0.9907,0.0452,0.0818
0.9929,0.0452,0.0699
0.9938,0.0447,0.0601
0.9941,0.043,0.0523
0.9929,0.0386,0.0437
0.9909,0.0359,0.0415
0.9882,0.0332,0.0425
0.9858,0.0303,0.0454
0.9828,0.0274,0.0501
0.9797,0.0227,0.0572
0.977,0.0178,0.0667
0.9733,0.0139,0.0772
0.9701,0.0093,0.0875
0.9662,0.0034,0.0987
0.9606,-0.0027,0.1121
0.9538,-0.0086,0.1261
0.9467,-0.0144,0.14
0.9411,-0.0205,0.1539
0.9335,-0.0271,0.1676
0.9259,-0.0325,0.182
0.9191,-0.0369,0.1969
0.9137,-0.0432,0.2125
0.91,-0.0503,0.2267
0.9052,-0.0557,0.2372
0.8983,-0.0603,0.2475
0.8905,-0.0645,0.2582
0.8837,-0.0689,0.2692
0.8783,-0.0723,0.2802
0.8736,-0.075,0.29
0.8683,-0.0774,0.299
0.8631,-0.0796,0.309
0.8587,-0.0809,0.3191
0.8548,-0.0814,0.3264
0.8514,-0.0809,0.3323
0.848,-0.0801,0.3367
0.8465,-0.0755,0.3413
0.8465,-0.0687,0.3452
0.8407,-0.0657,0.345
0.8324,-0.0652,0.3425
0.8267,-0.0643,0.3391
0.8228,-0.0623,0.3352
0.8204,-0.0594,0.3315
0.8196,-0.0557,0.3266
0.8187,-0.0506,0.3215
0.8182,-0.044,0.3169
0.8189,-0.0366,0.3108
0.8209,-0.0291,0.3044
0.8218,-0.0213,0.2973
0.8216,-0.0147,0.2905
0.8209,-0.0086,0.2849
0.8206,-0.0015,0.2797
0.8206,0.0049,0.2744
0.8204,0.011,0.2709
0.8189,0.0164,0.2673
0.8179,0.0208,0.2639
0.8184,0.0244,0.2612
0.8199,0.0279,0.2602
0.8201,0.0296,0.2612
0.8201,0.0313,0.2641
0.8209,0.032,0.2685
0.8209,0.0318,0.2748
0.8218,0.0305,0.2824
0.8238,0.0279,0.2897
0.826,0.0239,0.2978
0.8277,0.0193,0.3066
0.8294,0.0142,0.3152
0.8321,0.0086,0.324
0.835,0.0017,0.3325
0.8389,-0.0042,0.3401
0.8433,-0.0107,0.3464
0.8492,-0.0186,0.353
0.8568,-0.0254,0.3596
0.8653,-0.0322,0.3655
0.8744,-0.0384,0.3694
0.8849,-0.0447,0.3721
0.8978,-0.0498,0.3738
0.912,-0.0545,0.3738
0.9264,-0.0594,0.3728
0.9425,-0.0633,0.3701
0.9584,-0.066,0.3662
0.9748,-0.0682,0.3586
0.9914,-0.0694,0.3496
1.0065,-0.0694,0.3389
1.021,-0.0687,0.3264
1.0351,-0.0667,0.3134
1.0488,-0.0643,0.301
1.0622,-0.0623,0.288
1.0752,-0.0591,0.2739
1.0881,-0.055,0.2595
1.1006,-0.0491,0.2453
1.1109,-0.0428,0.2314
1.1201,-0.0352,0.2177
1.1294,-0.0266,0.2045
1.138,-0.0183,0.1918
1.1441,-0.0095,0.1796
1.1504,0.0005,0.1686
1.1563,0.0107,0.1593
1.1602,0.021,0.15
1.1624,0.0313,0.1422
1.1631,0.0408,0.1356
1.1636,0.0489,0.1309
1.1631,0.0577,0.1295
1.1602,0.066,0.1297
1.1553,0.0728,0.1317
1.1492,0.0794,0.1353
1.1412,0.0862,0.1419
1.1319,0.0919,0.151
1.1209,0.0965,0.1605
1.1072,0.1002,0.1722
1.0908,0.1024,0.1857
1.072,0.1038,0.1986
1.052,0.1033,0.2113
1.0317,0.1011,0.2262
1.0107,0.098,0.2411
0.9899,0.0928,0.2548
0.9699,0.0884,0.2687
0.9504,0.084,0.2832
0.9313,0.0796,0.299
0.9142,0.0752,0.3152
0.8981,0.0704,0.3315
0.8832,0.0652,0.3479
0.8685,0.0591,0.363
0.8536,0.0528,0.3787
0.8402,0.0467,0.3946
0.8289,0.0398,0.4097
0.8184,0.0318,0.4234
0.8084,0.0239,0.4368
0.7991,0.0159,0.4493
0.7903,0.0068,0.461
0.783,-0.0027,0.472
0.7766,-0.0134,0.4832
0.7703,-0.0257,0.4942
0.7661,-0.0396,0.505
0.7703,-0.0501,0.5172
0.7788,-0.063,0.5279
0.7801,-0.0853,0.5316
0.7779,-0.1109,0.5314
0.7881,-0.1331,0.5314
0.7967,-0.1517,0.5289
0.7874,-0.1752,0.5289
0.7786,-0.2006,0.5328
0.7806,-0.2211,0.5365
0.7935,-0.2365,0.5331
0.8155,-0.2482,0.5209
0.8429,-0.2582,0.5028
0.8736,-0.2675,0.4808
0.9081,-0.2768,0.4566
0.9464,-0.2846,0.4319
0.9887,-0.2917,0.4073
1.0339,-0.2968,0.3823
1.082,-0.2998,0.3586
1.1316,-0.3017,0.3359
1.1822,-0.3027,0.3144
1.232,-0.3029,0.2939
1.2814,-0.3025,0.2758
1.3305,-0.299,0.2592
1.3776,-0.2954,0.2438
1.4241,-0.2929,0.2296
1.4719,-0.29,0.2147
1.5181,-0.2858,0.2018
1.5645,-0.2822,0.1901
1.609,-0.279,0.1747
1.6476,-0.2729,0.1571
1.6823,-0.267,0.139
1.7121,-0.2612,0.1187
1.7356,-0.2536,0.0941
1.749,-0.2438,0.0665
1.7456,-0.2377,0.0322
1.7153,-0.2358,-0.0132
1.684,-0.2257,-0.0462
1.6725,-0.2062,-0.0665
1.6667,-0.1881,-0.0901
1.6569,-0.1737,-0.1146
1.64,-0.1595,-0.1397
1.6156,-0.1473,-0.1664
1.5829,-0.1356,-0.1937
1.5455,-0.1253,-0.2184
1.5044,-0.1173,-0.2394
1.459,-0.1068,-0.2563
1.4109,-0.0953,-0.2678
1.3613,-0.0833,-0.2734
1.3131,-0.0679,-0.2719
1.2728,-0.0447,-0.2597
1.2377,-0.0305,-0.2419
1.2005,-0.0249,-0.2235
1.1612,-0.021,-0.2064
1.1199,-0.0154,-0.1859
1.0762,-0.011,-0.1622
1.0327,-0.0076,-0.1366
0.9912,-0.0032,-0.1102
0.9521,0.001,-0.086
0.9147,0.0037,-0.0647
0.8778,0.0049,-0.0452
0.8419,0.0039,-0.0252
0.8065,0.0002,-0.0044
0.7718,-0.0032,0.0144
0.7398,-0.0051,0.0296
0.7117,-0.0073,0.0428
0.6882,-0.0103,0.0545
0.6672,-0.0137,0.0665
0.6477,-0.0181,0.0789
0.6306,-0.0217,0.0921
0.6191,-0.0225,0.1068
0.6142,-0.0156,0.1309
0.6205,-0.0051,0.1471
0.6362,0.0093,0.1605
0.6604,0.0259,0.1717
0.6902,0.041,0.1813
0.7222,0.0537,0.1891
0.7532,0.0638,0.1947
0.7823,0.0711,0.1984
0.8111,0.0779,0.1984
0.8392,0.0855,0.1935
0.8639,0.0931,0.1847
0.8856,0.1002,0.1739
0.9056,0.1058,0.162
0.9227,0.1102,0.151
0.9372,0.1141,0.1432
0.9504,0.117,0.1371
0.9616,0.1195,0.1319
0.9699,0.1204,0.1287
0.9765,0.1212,0.1256
0.9826,0.1224,0.1222
0.986,0.1229,0.1187
0.986,0.1217,0.1163
0.9824,0.1207,0.1141
0.9787,0.1195,0.1114
0.9731,0.118,0.1085
0.9638,0.1165,0.1063
0.9538,0.1151,0.1051
0.943,0.1131,0.1041
0.9323,0.1107,0.1031
0.9205,0.108,0.1029
0.9083,0.1055,0.1033
0.8959,0.1031,0.1033
0.8832,0.1009,0.1026
0.8705,0.0987,0.1019
0.859,0.0972,0.1014
0.8487,0.0955,0.1016
0.8389,0.0943,0.1026
0.8311,0.0923,0.1043
0.8265,0.0899,0.1063
0.8265,0.087,0.108
0.826,0.0806,0.1085
0.8209,0.0721,0.1077
0.8135,0.0665,0.1046
0.8065,0.0638,0.098
0.7999,0.0611,0.0914
0.7947,0.0584,0.0865
0.7908,0.0552,0.0831
0.7884,0.0511,0.0804
0.7864,0.0472,0.0779
0.7847,0.0432,0.0757
0.783,0.0386,0.0735
0.7818,0.0325,0.0706
0.7798,0.023,0.0662
0.7784,0.0156,0.0635
0.7788,0.0129,0.0645
0.7803,0.01,0.0669
0.7818,0.0061,0.0694
0.7832,0.0029,0.0718
0.785,-0.0005,0.0743
0.7859,-0.0044,0.0765
0.7869,-0.0083,0.0794
0.7884,-0.0117,0.085
0.7913,-0.0159,0.0909
0.7945,-0.0198,0.097
0.7967,-0.0232,0.1041
0.7996,-0.0274,0.1124
0.8038,-0.0322,0.1209
0.8077,-0.0388,0.1295
0.8113,-0.0474,0.1378
0.8145,-0.0572,0.1454
0.8167,-0.066,0.1537
0.8199,-0.075,0.163
0.8238,-0.0848,0.1722
0.8275,-0.0938,0.182
0.8306,-0.1026,0.1925
0.8336,-0.1109,0.2035
0.8375,-0.1185,0.2143
0.8424,-0.1258,0.226
0.8487,-0.1327,0.2367
0.856,-0.1388,0.2467
0.8626,-0.1444,0.2568
0.868,-0.1493,0.2675
0.8739,-0.1537,0.2761
0.8822,-0.1576,0.2834
0.8905,-0.1612,0.291
0.8983,-0.1654,0.2971
0.9056,-0.1691,0.3012
0.9127,-0.1715,0.3046
0.9188,-0.173,0.3066
0.9249,-0.1727,0.3071
0.9303,-0.171,0.3059
0.9345,-0.1703,0.3034
0.9379,-0.1678,0.3003
0.9408,-0.1634,0.2968
0.944,-0.1581,0.2924
0.9467,-0.1529,0.2878
0.9482,-0.1478,0.2829
0.9491,-0.1424,0.2768
0.9494,-0.1366,0.2704
0.9489,-0.1302,0.2639
0.9484,-0.1236,0.2573
0.9486,-0.1158,0.2509
0.9474,-0.1077,0.2448
0.9464,-0.1007,0.2399
0.945,-0.0936,0.2348
0.9423,-0.0848,0.2296
0.9389,-0.0767,0.226
0.9362,-0.0691,0.224
0.9333,-0.0603,0.2216
0.9296,-0.0528,0.2204
0.9254,-0.0459,0.2199
0.9196,-0.0388,0.2187
0.9135,-0.0318,0.2194
0.9078,-0.0252,0.2211
0.9022,-0.0188,0.2245
0.8966,-0.0125,0.2282
0.8915,-0.0073,0.2318
0.8863,-0.0032,0.237
0.8819,-0.0002,0.2426
0.879,0.0017,0.2485
0.8756,0.0024,0.2531
0.8668,-0.0061,0.2531
0.8551,-0.0144,0.2502
0.8531,-0.0086,0.256
0.8541,-0.0012,0.2665
0.8587,0.0093,0.2785
0.8624,0.0147,0.289
0.8646,0.0166,0.2949
0.8675,0.0225,0.2993
0.871,0.0279,0.3051
0.8736,0.0286,0.3117
0.8753,0.0247,0.3178
0.8768,0.0183,0.3242
0.879,0.0112,0.3291
0.8824,0.0032,0.3315
0.8876,-0.0039,0.3313
0.8932,-0.0098,0.3303
0.8986,-0.0164,0.3298
0.9042,-0.0227,0.3288
0.9096,-0.0276,0.3276
0.9152,-0.0325,0.3279
0.9205,-0.0369,0.3281
0.9249,-0.0408,0.3279
0.9284,-0.044,0.3271
0.9315,-0.0472,0.3257
0.9347,-0.0506,0.3244
0.9381,-0.0535,0.3249
0.9418,-0.0562,0.3257
0.9457,-0.0586,0.3266
0.9506,-0.0618,0.3271
0.9557,-0.0638,0.3286
0.9621,-0.0652,0.3308
0.9677,-0.0662,0.3335
0.9745,-0.0674,0.3367
0.9826,-0.0684,0.3401
0.9907,-0.0694,0.3447
0.9977,-0.0716,0.3498
1.0058,-0.0733,0.3545
1.0148,-0.0743,0.3594
1.0246,-0.075,0.363
1.0346,-0.0765,0.366
1.0447,-0.0784,0.3677
1.0544,-0.0801,0.3679
1.063,-0.0809,0.3672
1.0698,-0.0811,0.3665
1.0769,-0.0823,0.365
1.0847,-0.0843,0.3621
1.0918,-0.0862,0.3582
1.0979,-0.088,0.355
1.104,-0.0897,0.3523
1.1099,-0.0911,0.3486
1.114,-0.0909,0.3442
1.1175,-0.0916,0.3396
1.1197,-0.0926,0.3359
1.1211,-0.0926,0.3327
1.1226,-0.0916,0.3296
1.1236,-0.0887,0.3266
1.1219,-0.0855,0.324
1.1197,-0.0823,0.322
1.1175,-0.0782,0.3208
1.114,-0.0735,0.3196
1.1099,-0.0684,0.3186
1.1048,-0.0628,0.3164
1.0991,-0.0569,0.3144
1.093,-0.0506,0.3144
1.0859,-0.0437,0.3156
1.0779,-0.0366,0.3181
1.0698,-0.0291,0.3222
1.0591,-0.0215,0.3281
1.0476,-0.0137,0.3347
1.0359,-0.0066,0.3415
1.0234,0.001,0.3496
1.009,0.0088,0.3582
0.9938,0.0154,0.3679
0.9784,0.0205,0.3784
0.9628,0.0247,0.3892
0.9389,0.0288,0.4033
0.9225,0.0288,0.4129
0.9066,0.0288,0.4217
0.8903,0.0276,0.4292
0.8751,0.0237,0.4366
0.8629,0.0181,0.4432
0.8507,0.012,0.4495
0.838,0.0049,0.4542
0.8262,-0.0029,0.4583
0.8165,-0.0117,0.462
0.8079,-0.0203,0.4642
0.8006,-0.0281,0.4656
0.7952,-0.0366,0.4671
0.7913,-0.0445,0.4683
0.7884,-0.0515,0.4708
0.7879,-0.0569,0.473
0.7894,-0.0611,0.474
0.7923,-0.0655,0.4742
0.7981,-0.0701,0.4749
0.8069,-0.0735,0.4762
0.8172,-0.0752,0.4759
0.8284,-0.0743,0.4752
0.8411,-0.0713,0.4769
0.857,-0.0684,0.4784
0.8763,-0.063,0.4788
0.899,-0.0574,0.4788
0.924,-0.052,0.4764
0.9516,-0.0479,0.4722
0.9802,-0.0454,0.4693
1.0087,-0.042,0.4686
1.0385,-0.0376,0.4705
1.0674,-0.0322,0.4754
1.0945,-0.0264,0.4808
1.1204,-0.0203,0.484
1.1443,-0.0139,0.4837
1.1683,-0.0066,0.4776
1.1895,-0.0007,0.4666
1.2066,0.0034,0.451
1.2213,0.0068,0.4305
1.2347,0.01,0.4036
1.2469,0.0117,0.375
1.2552,0.0132,0.345
1.2511,-0.0002,0.3088
1.2474,-0.0122,0.2724
1.2545,-0.0105,0.2404
1.2658,-0.0056,0.2113
1.2728,-0.0054,0.184
1.2787,-0.0061,0.1556
1.2821,-0.0105,0.1251
1.2807,-0.0195,0.0914
1.2831,-0.0239,0.0594
1.2863,-0.0288,0.0296
1.2848,-0.0393,0.001
1.2772,-0.0537,-0.0271
1.2723,-0.0652,-0.0518
1.2736,-0.0748,-0.0743
1.2745,-0.086,-0.0936
1.2741,-0.0987,-0.1094
1.2723,-0.1116,-0.1239
1.2704,-0.1239,-0.1361
1.2689,-0.1361,-0.1466
1.2679,-0.1471,-0.1537
1.2677,-0.1576,-0.1595
1.2682,-0.1661,-0.1642
1.2692,-0.1732,-0.1681
1.2697,-0.1801,-0.1713
1.2694,-0.1874,-0.1739
1.2662,-0.1979,-0.1774
1.2616,-0.2047,-0.1815
1.2572,-0.2072,-0.1847
1.2494,-0.2106,-0.1879
1.2352,-0.2218,-0.1935
1.2201,-0.2272,-0.1984
1.2083,-0.2228,-0.1994
1.1969,-0.2135,-0.1989
1.1832,-0.203,-0.1962
1.17,-0.195,-0.1945
1.157,-0.1881,-0.1932
1.1421,-0.1786,-0.1928
1.1263,-0.1656,-0.1925
1.1099,-0.1517,-0.1913
1.0933,-0.1388,-0.1901
1.0781,-0.127,-0.1884
1.063,-0.1138,-0.1874
1.0456,-0.0985,-0.1857
1.0283,-0.0831,-0.1847
1.0129,-0.0672,-0.1815
0.9985,-0.0501,-0.1776
0.986,-0.0327,-0.1744
0.9738,-0.0137,-0.1735
0.9631,0.0068,-0.1739
0.9504,0.0252,-0.1759
0.9389,0.0398,-0.1737
0.9298,0.0586,-0.1715
0.9201,0.0816,-0.173
0.9093,0.0999,-0.1717
0.899,0.1124,-0.162
0.891,0.1219,-0.1446
0.8873,0.1324,-0.1251
0.8893,0.1441,-0.106
0.8951,0.1529,-0.0872
0.9054,0.1561,-0.0669
0.9188,0.1522,-0.0474
0.9301,0.1417,-0.0315
0.9398,0.1258,-0.0181
0.946,0.106,-0.0066
0.9499,0.0858,0.0059
0.9555,0.0657,0.0191
0.9616,0.0464,0.0332
0.9684,0.0276,0.0484
0.9767,0.0095,0.0652
0.9858,-0.0088,0.0823
0.9953,-0.0257,0.0985
1.0056,-0.0413,0.1138
1.0148,-0.0567,0.1302
1.0234,-0.0699,0.1459
1.0315,-0.0826,0.1608
1.0376,-0.0967,0.1732
1.0412,-0.1094,0.184
1.042,-0.1207,0.1915
1.0393,-0.1307,0.1964
1.0337,-0.14,0.2001
1.0263,-0.1449,0.204
1.0197,-0.1478,0.2089
1.0107,-0.1544,0.2113
0.9995,-0.1642,0.2094
0.9868,-0.1744,0.206
0.9738,-0.1845,0.2011
0.9601,-0.1935,0.1957
0.945,-0.2028,0.1898
0.9311,-0.2133,0.1842
0.9161,-0.2233,0.1791
0.901,-0.2331,0.1725
0.8866,-0.2431,0.1652
0.8734,-0.2521,0.159
0.8607,-0.2607,0.1542
0.8477,-0.2702,0.1493
0.836,-0.279,0.1459
0.8245,-0.2858,0.1427
0.8143,-0.2917,0.1393
0.8057,-0.2983,0.1361
0.7967,-0.3046,0.1331
0.7894,-0.31,0.1312
0.7854,-0.3125,0.1314
0.7837,-0.3139,0.1341
0.784,-0.3164,0.1375
0.7852,-0.3196,0.14
0.7857,-0.3213,0.1417
0.7852,-0.321,0.1424
0.7857,-0.3198,0.1449
0.7894,-0.3161,0.1473
0.7977,-0.3103,0.1512
0.8091,-0.3015,0.1559
0.8221,-0.29,0.1605
0.8348,-0.2768,0.1664
0.848,-0.2612,0.1727
0.8626,-0.2446,0.1788
0.8766,-0.227,0.1832
0.8898,-0.2094,0.1874
0.9022,-0.193,0.1906
0.9135,-0.1769,0.1918
0.923,-0.161,0.1928
0.9313,-0.1441,0.1945
0.9394,-0.1275,0.1957
0.946,-0.1109,0.1969
0.9511,-0.0941,0.1986
0.955,-0.0774,0.1996
0.9574,-0.0613,0.1998
0.9601,-0.0457,0.1996
0.9616,-0.0308,0.2001
0.9621,-0.0171,0.2006
0.9623,-0.0046,0.2006
0.9611,0.0066,0.2006
0.9596,0.0183,0.2006
0.9574,0.0296,0.2001
0.9543,0.0393,0.2003
0.9506,0.0489,0.2006
0.9474,0.0572,0.1996
0.944,0.0645,0.1991
0.9398,0.0711,0.1991
0.9362,0.0772,0.1981
0.9325,0.0811,0.1972
0.9286,0.0838,0.1964
0.9242,0.0848,0.1957
0.9208,0.0836,0.1957
0.9188,0.0828,0.1952
0.9157,0.0831,0.193
0.9096,0.0821,0.1918
0.902,0.0806,0.192
0.8951,0.0782,0.192
0.8895,0.0757,0.192
0.8863,0.0723,0.1925
0.8832,0.0684,0.194
0.8797,0.0645,0.1954
0.8758,0.0589,0.1969
0.871,0.0506,0.2018
0.8692,0.0452,0.2052
0.8661,0.0398,0.2094
0.8624,0.0342,0.213
0.8612,0.0271,0.2182
0.8614,0.0203,0.2233
0.8622,0.0149,0.2282
0.8624,0.0093,0.2333
0.8634,0.0029,0.2392
0.8646,-0.0022,0.246
0.8663,-0.0081,0.2531
0.8683,-0.0139,0.259
0.8702,-0.02,0.2648
0.8724,-0.0269,0.2714
0.8736,-0.033,0.2775
0.8744,-0.0381,0.2829
0.8775,-0.044,0.289
0.8819,-0.0513,0.2951
0.8856,-0.0572,0.301
0.8868,-0.0601,0.3068
0.8871,-0.0608,0.3144
0.8881,-0.0611,0.3235
0.8927,-0.0581,0.3327
0.8959,-0.0562,0.3389
0.8944,-0.0616,0.3403
0.8905,-0.0691,0.3393
0.8861,-0.0755,0.3376
0.8829,-0.0826,0.3362
0.8805,-0.0901,0.3357
0.8783,-0.097,0.334
0.8751,-0.1029,0.3325
0.871,-0.1073,0.3301
0.8658,-0.1112,0.3288
0.8619,-0.1153,0.3281
0.859,-0.1202,0.3281
0.8553,-0.1234,0.3279
0.8504,-0.1248,0.3286
0.8455,-0.1248,0.331
0.8419,-0.1236,0.3345
0.8399,-0.1207,0.3386
0.8387,-0.118,0.3423
0.837,-0.1156,0.3467
0.835,-0.1124,0.3516
0.8343,-0.1097,0.356
0.8338,-0.1077,0.3591
0.8341,-0.1055,0.3621
0.8348,-0.1031,0.3662
0.8346,-0.1011,0.3709
0.8331,-0.0997,0.3738
0.8319,-0.098,0.3767
0.8311,-0.095,0.3792
0.8324,-0.0916,0.3821
0.8387,-0.0836,0.387
0.8402,-0.0784,0.3892
0.836,-0.0792,0.3877
0.8348,-0.0792,0.388
0.8353,-0.0794,0.3882
0.836,-0.0779,0.3882
0.8433,-0.0679,0.3914
0.8531,-0.0623,0.3948
0.8514,-0.0691,0.3904
0.8458,-0.0745,0.384
0.8429,-0.076,0.3809
0.8436,-0.0752,0.3794
0.847,-0.0733,0.3777
0.8519,-0.0696,0.3753
0.8592,-0.064,0.3728
0.8688,-0.0577,0.3716
0.8805,-0.0506,0.3704
0.8942,-0.0428,0.3691
0.9081,-0.0352,0.3657
0.9227,-0.0281,0.3623
0.9372,-0.0227,0.3574
0.9523,-0.0193,0.3506
0.9679,-0.0154,0.344
0.9826,-0.0115,0.3367
0.9975,-0.0083,0.3288
1.0141,-0.0073,0.321
1.0302,-0.0081,0.313
1.0442,-0.0081,0.3049
1.0588,-0.01,0.2966
1.074,-0.0132,0.289
1.0874,-0.0164,0.2829
1.0999,-0.0205,0.2773
1.1123,-0.0257,0.2724
1.1243,-0.0303,0.267
1.1348,-0.0349,0.2626
1.1443,-0.0398,0.2597
1.1531,-0.0452,0.2568
1.1614,-0.0491,0.2548
1.169,-0.0533,0.2531
1.1766,-0.0562,0.2516
1.1832,-0.0591,0.2507
1.1895,-0.0611,0.2507
1.1959,-0.0608,0.2504
1.2015,-0.0594,0.2504
1.2059,-0.0574,0.2497
1.211,-0.054,0.2487
1.2149,-0.0489,0.2475
1.2176,-0.0418,0.2472
1.2196,-0.0344,0.2482
1.2191,-0.0266,0.2502
1.2179,-0.0181,0.2521
1.2162,-0.0088,0.2548
1.213,0.001,0.259
1.2081,0.0107,0.2634
1.2027,0.0208,0.269
1.1961,0.031,0.2766
1.1881,0.0403,0.2844
1.178,0.0484,0.2929
1.1673,0.0552,0.3022
1.1556,0.0616,0.3134
1.1424,0.066,0.3257
1.1289,0.0669,0.3354
1.1135,0.065,0.3445
1.0986,0.0603,0.3542
1.0859,0.053,0.364
1.0752,0.0454,0.3723
1.0669,0.0391,0.3799
1.061,0.0337,0.3884
1.0578,0.0283,0.3977
1.0578,0.0239,0.407
1.061,0.02,0.4141
1.0671,0.0154,0.4175
1.0745,0.0105,0.417
1.0845,0.0044,0.4104
1.0974,-0.0046,0.398
1.1121,-0.0151,0.3806
1.1272,-0.0271,0.3594
1.1436,-0.0403,0.3354
1.1609,-0.0547,0.3122
1.1788,-0.0711,0.291
1.1973,-0.0887,0.2717
1.2157,-0.1063,0.2551
1.2342,-0.1244,0.2436
1.2518,-0.1415,0.2353
1.2745,-0.1581,0.2292
1.3002,-0.1737,0.2262
1.3251,-0.1874,0.2257
1.3483,-0.1979,0.2267
1.371,-0.2033,0.2282
1.3935,-0.205,0.2296
1.4145,-0.2038,0.2299
1.4329,-0.1991,0.227
1.4512,-0.1932,0.2231
1.469,-0.1854,0.2174
1.4849,-0.1761,0.2079
1.4961,-0.1654,0.194
1.5049,-0.1527,0.1783
1.5118,-0.1385,0.1608
1.5154,-0.1256,0.1405
1.514,-0.1112,0.1187
1.5071,-0.097,0.0945
1.4952,-0.0858,0.0674
1.4771,-0.0762,0.0384
1.4522,-0.0684,0.0103
1.4236,-0.0567,-0.0161
1.393,-0.043,-0.043
1.3586,-0.031,-0.0674
1.3229,-0.0203,-0.0865
1.2885,-0.009,-0.1004
1.2555,0.0002,-0.1109
1.2242,0.0112,-0.116
1.1971,0.0279,-0.1138
1.169,0.0347,-0.1082
1.1365,0.0322,-0.1048
1.0996,0.0271,-0.1046
1.0625,0.0237,-0.1041
1.0278,0.0195,-0.1002
0.9953,0.0134,-0.0919
0.9643,0.0064,-0.0831
0.9345,-0.0027,-0.0752
0.9061,-0.0134,-0.0687
0.879,-0.0239,-0.0628
0.8524,-0.0354,-0.0562
0.8275,-0.0476,-0.0501
0.8045,-0.0596,-0.0445
0.7801,-0.073,-0.0391
0.7566,-0.0855,-0.033
0.7356,-0.0989,-0.0261
0.7156,-0.1112,-0.0188
0.6973,-0.1217,-0.0115
0.6799,-0.1314,-0.0039
0.6643,-0.1407,0.0046
0.6494,-0.1478,0.0127
0.6374,-0.1554,0.0208
0.6284,-0.1634,0.0303
0.6186,-0.171,0.0393
0.61,-0.1793,0.0493
0.6073,-0.1857,0.0611
0.6125,-0.1898,0.0713
0.6242,-0.1906,0.0772
0.6425,-0.1871,0.0772
0.6674,-0.1805,0.0757
0.6955,-0.17,0.0772
0.7241,-0.1554,0.0787
0.7515,-0.1378,0.0779
0.7776,-0.119,0.075
0.8038,-0.1004,0.0711
0.8289,-0.0831,0.0667
0.8526,-0.0672,0.0613
0.8868,-0.044,0.0518
0.9078,-0.0291,0.045
0.9286,-0.0137,0.0376
0.9491,0.0002,0.0315
0.9684,0.0132,0.0252
0.9858,0.0271,0.0193
1.0021,0.0396,0.0139
1.0173,0.0503,0.0107
1.0293,0.0599,0.009
1.039,0.0701,0.0068
1.0469,0.0794,0.0059
1.0512,0.0867,0.0044
1.0534,0.0933,0.0027
1.0534,0.1009,0.0032
1.0532,0.1097,0.0056
1.0532,0.1187,0.0095
1.0505,0.1263,0.0139
1.0449,0.1312,0.0193
1.0363,0.1349,0.0249
1.0244,0.139,0.03
1.0158,0.1459,0.0362
1.0109,0.1534,0.0442
1.0041,0.1595,0.052
0.9926,0.1642,0.0581
0.9799,0.1671,0.0638
0.9653,0.1683,0.0694
0.9496,0.1686,0.074
0.934,0.1669,0.0784
0.9171,0.1649,0.0831
0.901,0.1637,0.0875
0.8863,0.161,0.0914
0.8727,0.1559,0.0958
0.8592,0.152,0.1002
0.8475,0.1483,0.1046
0.8392,0.1437,0.1077
0.8319,0.1385,0.1099
0.8243,0.1329,0.1114
0.817,0.127,0.1129
0.8106,0.1214,0.1136
0.8067,0.1168,0.1143
0.8045,0.1124,0.1153
0.803,0.107,0.1168
0.8018,0.1019,0.1173
0.8013,0.097,0.1182
0.8008,0.0914,0.119
0.8006,0.0858,0.119
0.8003,0.0806,0.1182
0.8006,0.0762,0.1175
0.8011,0.0711,0.116
0.8008,0.065,0.1146
0.8018,0.0608,0.1134
0.8033,0.0581,0.1126
0.8038,0.0535,0.1109
0.804,0.0474,0.109
0.8016,0.0379,0.106
0.7964,0.0271,0.1009
0.794,0.02,0.0982
0.7901,0.0144,0.0972
0.7923,0.0147,0.0987
0.7959,0.0129,0.1002
0.8016,0.0122,0.1016
0.8062,0.0098,0.1019
0.8106,0.0076,0.1009
0.8162,0.0066,0.1014
0.8196,0.0037,0.1019
0.8262,0.0042,0.1043
0.8309,0.001,0.1053
0.838,0.0005,0.1068
0.8463,-0.0012,0.1094
0.8512,-0.0076,0.1102
0.8582,-0.0083,0.1121
0.8688,-0.0059,0.1173
0.8763,-0.0076,0.1226
0.8795,-0.0132,0.1258
0.8856,-0.0173,0.129
0.8949,-0.0181,0.1344
0.9047,-0.0205,0.1412
0.9122,-0.0249,0.1483
0.9174,-0.0291,0.1549
0.9208,-0.0344,0.162
0.922,-0.0408,0.1678
0.9235,-0.0464,0.1735
0.9254,-0.0511,0.1805
0.9279,-0.0562,0.1871
0.9303,-0.0611,0.1932
0.933,-0.0655,0.1996
0.9347,-0.0694,0.206
0.9352,-0.0728,0.2125
0.9359,-0.075,0.2177
0.9376,-0.0777,0.2216
0.9384,-0.0799,0.2257
0.9394,-0.0809,0.2301
0.9396,-0.0818,0.2338
0.9389,-0.0828,0.2362
0.9367,-0.0833,0.2394
0.9357,-0.0833,0.2424
0.9345,-0.0826,0.2448
0.9323,-0.0826,0.2465
0.9296,-0.0838,0.2472
0.9264,-0.0845,0.2475
0.9225,-0.085,0.248
0.9179,-0.0855,0.248
0.9139,-0.0867,0.2472
0.911,-0.0884,0.2482
0.9078,-0.0899,0.2494
0.9047,-0.0904,0.2504
0.9025,-0.0914,0.2516
0.9,-0.0923,0.2536
0.8986,-0.0936,0.2558
0.8973,-0.095,0.2585
0.8964,-0.0972,0.2612
0.8966,-0.0982,0.2646
0.8968,-0.0994,0.2675
0.8968,-0.1002,0.2702
0.8986,-0.0999,0.2736
0.9005,-0.0999,0.278
0.9005,-0.1002,0.2822
0.9005,-0.1002,0.2866
0.9015,-0.1002,0.2917
0.902,-0.0997,0.2968
0.901,-0.0989,0.3007
0.9017,-0.0977,0.3049
0.9032,-0.0967,0.3108
0.9044,-0.0948,0.3152
0.9042,-0.0928,0.3178
0.9044,-0.0911,0.32
0.9054,-0.0901,0.324
0.9071,-0.0892,0.3274
0.9093,-0.0894,0.3296
0.9108,-0.0882,0.3332
0.912,-0.0877,0.3359
0.913,-0.088,0.3371
0.9147,-0.0882,0.3384
0.9174,-0.0884,0.3389
0.9191,-0.0887,0.3381
0.922,-0.0887,0.3369
0.9257,-0.0892,0.3352
0.9296,-0.0887,0.3335
0.9333,-0.0887,0.3325
0.9376,-0.0897,0.3318
0.9428,-0.0904,0.3313
0.9489,-0.0904,0.3301
0.9552,-0.0897,0.3279
0.9616,-0.0889,0.3249
0.9679,-0.0875,0.3222
0.974,-0.0855,0.3208
0.9802,-0.0818,0.3186
0.9865,-0.0782,0.3171
0.9919,-0.0748,0.3164
0.9965,-0.0713,0.3159
1.0019,-0.0682,0.3137
1.0078,-0.0643,0.3115
1.0139,-0.0606,0.3103
1.0185,-0.0569,0.3081
1.0236,-0.0537,0.3061
1.029,-0.0496,0.3051
1.0344,-0.0454,0.3029
1.0395,-0.042,0.2998
1.0442,-0.0384,0.2971
1.0491,-0.0344,0.2937
1.0547,-0.0305,0.2895
1.0598,-0.0264,0.2856
1.0654,-0.0222,0.2827
1.0713,-0.0176,0.281
1.0771,-0.0125,0.279
1.082,-0.0078,0.278
1.0857,-0.0039,0.277
1.0894,0.001,0.2768
1.0925,0.0056,0.2773
1.0947,0.01,0.2783
1.096,0.0142,0.279
1.0955,0.0183,0.28
1.096,0.0222,0.2829
1.0945,0.0261,0.2868
1.0918,0.0296,0.2922
1.0881,0.0332,0.2993
1.0835,0.0369,0.3078
1.0789,0.0403,0.3174
1.0732,0.0442,0.3281
1.0657,0.0467,0.3403
1.0578,0.0489,0.3533
1.0491,0.0513,0.3657
1.0398,0.0525,0.3787
1.0302,0.0525,0.3916
1.021,0.0518,0.4051
1.0114,0.0515,0.418
0.9999,0.0503,0.4307
0.9887,0.0472,0.4437
0.9775,0.044,0.4559
0.9667,0.0401,0.4678
0.9569,0.0349,0.4796
0.9467,0.03,0.4908
0.9369,0.0247,0.5011
0.9235,0.0154,0.5157
0.9139,0.0076,0.5233
0.9052,-0.0017,0.5292
0.8971,-0.0105,0.5345
0.89,-0.0188,0.5387
0.8839,-0.0269,0.5411
0.8802,-0.0349,0.5443
0.8785,-0.043,0.547
0.8771,-0.0498,0.5497
0.878,-0.0555,0.5502
0.881,-0.0618,0.5502
0.8844,-0.0684,0.5494
0.8878,-0.0733,0.5468
0.8925,-0.0767,0.5428
0.8956,-0.0779,0.5385
0.8983,-0.0767,0.5333
0.9022,-0.073,0.5262
0.9059,-0.0677,0.5189
0.91,-0.0628,0.5108
0.9176,-0.063,0.5003
0.9286,-0.0689,0.4845
0.9406,-0.0704,0.4678
0.954,-0.0667,0.4573
0.9687,-0.0635,0.4534
0.9833,-0.0606,0.4539
0.9982,-0.0579,0.4554
1.0105,-0.0535,0.4522
1.02,-0.0464,0.4429
1.0295,-0.0398,0.4285
1.041,-0.0352,0.4107
1.053,-0.0332,0.386
1.0627,-0.0342,0.3547
1.0713,-0.0418,0.3186
1.0842,-0.0459,0.2817
1.0996,-0.0493,0.2458
1.1153,-0.0545,0.2096
1.1346,-0.0591,0.173
1.1524,-0.0662,0.1358
1.1675,-0.0726,0.0994
1.1812,-0.0801,0.0618
1.1907,-0.0916,0.0237
1.1964,-0.1051,-0.0139
1.2096,-0.1112,-0.0462
1.2223,-0.1173,-0.0755
1.2362,-0.1226,-0.1014
1.2511,-0.1268,-0.1244
1.2667,-0.13,-0.1444
1.2824,-0.1327,-0.1603
1.2975,-0.1339,-0.171
1.3136,-0.1358,-0.1793
1.33,-0.1383,-0.1867
1.3464,-0.1385,-0.1918
1.3618,-0.1373,-0.1942
1.375,-0.1358,-0.1962
1.3877,-0.1341,-0.1972
1.3999,-0.1322,-0.1976
1.4087,-0.1307,-0.1981
1.4158,-0.128,-0.1969
1.4177,-0.1246,-0.1957
1.4177,-0.1212,-0.1945
1.417,-0.1192,-0.193
1.4104,-0.1197,-0.1932
1.4009,-0.1217,-0.1942
1.3889,-0.1224,-0.1947
1.3732,-0.1246,-0.1945
1.3539,-0.1261,-0.195
1.3339,-0.1256,-0.1962
1.3127,-0.1219,-0.1969
1.2909,-0.118,-0.1981
1.267,-0.1156,-0.1994
1.2443,-0.1119,-0.2023
1.2223,-0.1046,-0.2069
1.1983,-0.0953,-0.2101
1.1734,-0.0889,-0.2128
1.1475,-0.0816,-0.2135
1.1223,-0.0708,-0.2133
1.0989,-0.0555,-0.2121
1.0745,-0.0388,-0.2101
1.0493,-0.022,-0.206
1.0261,-0.0056,-0.1986
1.0058,0.011,-0.1928
0.986,0.0274,-0.193
0.9638,0.045,-0.1972
0.9438,0.0613,-0.1991
0.9252,0.0792,-0.2011
0.9064,0.0963,-0.2023
0.8893,0.1126,-0.1974
0.8722,0.1319,-0.1923
0.8514,0.1505,-0.1857
0.8299,0.1627,-0.1713
0.8111,0.1713,-0.1478
0.7986,0.1798,-0.1204
0.7969,0.1884,-0.0909
0.803,0.1969,-0.0608
0.8179,0.2033,-0.03
0.8421,0.2042,0.0002
0.8719,0.1981,0.0264
0.8995,0.182,0.0467
0.9198,0.1561,0.0601
0.9308,0.1236,0.0691
0.9357,0.0904,0.0772
0.9374,0.0599,0.087
0.9401,0.0293,0.0989
0.945,-0.0007,0.1126
0.9521,-0.0286,0.129
0.9613,-0.0537,0.1483
0.9716,-0.0782,0.1695
0.9828,-0.1014,0.1896
0.9936,-0.1226,0.2089
1.0041,-0.1402,0.2267
1.0141,-0.1551,0.2426
1.0234,-0.1642,0.2585
1.0285,-0.1732,0.2719
1.0298,-0.1859,0.2817
1.028,-0.1989,0.2873
1.0241,-0.2103,0.29
1.0185,-0.2216,0.2897
1.0107,-0.2328,0.2873
1.0002,-0.2436,0.2832
0.9887,-0.2546,0.2768
0.976,-0.2648,0.2687
0.9631,-0.2751,0.2592
0.9491,-0.2851,0.2509
0.933,-0.2949,0.2426
0.9174,-0.3042,0.2316
0.9025,-0.3137,0.2201
0.8876,-0.3237,0.2094
0.8729,-0.3325,0.1991
0.858,-0.3401,0.1888
0.8431,-0.3484,0.1796
0.828,-0.3564,0.171
0.814,-0.3626,0.1634
0.8013,-0.3679,0.159
0.7894,-0.3726,0.1564
0.7779,-0.3753,0.1544
0.7676,-0.3767,0.1539
0.7583,-0.3779,0.1546
0.7498,-0.3806,0.1568
0.7432,-0.3823,0.1603
0.7398,-0.3804,0.1654
0.74,-0.3745,0.1727
0.7437,-0.3672,0.182
0.7505,-0.3569,0.1925
0.7608,-0.3408,0.2045
0.7742,-0.3227,0.2169
0.7876,-0.3049,0.2274
0.8003,-0.2863,0.2358
0.8126,-0.268,0.2431
0.824,-0.2499,0.2487
0.8343,-0.2316,0.2519
0.8431,-0.2133,0.2541
0.8502,-0.1947,0.2551
0.856,-0.1757,0.2563
0.8612,-0.1559,0.2573
0.8653,-0.1356,0.257
0.8683,-0.1153,0.2565
0.8705,-0.0941,0.2563
0.8727,-0.0726,0.2555
0.8736,-0.0513,0.2548
0.8736,-0.0305,0.2543
0.8734,-0.0112,0.2546
0.8744,0.0071,0.2541
0.8749,0.0252,0.2526
0.8751,0.044,0.2516
0.8766,0.0613,0.2519
0.878,0.0782,0.2521
0.8788,0.0948,0.2509
0.8805,0.1109,0.2497
0.8819,0.1251,0.2492
0.8841,0.1393,0.2494
0.8873,0.1517,0.2489
0.891,0.1622,0.247
0.8954,0.1727,0.2436
0.8995,0.1823,0.2387
0.9039,0.1906,0.2326
0.9074,0.1976,0.2267
0.9096,0.2033,0.2206
0.9125,0.2072,0.215
0.9149,0.2094,0.2086
0.9174,0.2111,0.203
0.9186,0.2113,0.1981
0.9183,0.2096,0.194
0.9159,0.2069,0.1896
0.913,0.2023,0.1849
0.91,0.1964,0.1808
0.9052,0.1898,0.1776
0.9,0.1818,0.1769
0.8956,0.1727,0.1779
0.8927,0.1625,0.1783
0.8895,0.152,0.1798
0.8851,0.1412,0.1827
0.8819,0.1297,0.1864
0.88,0.1175,0.1906
0.879,0.1043,0.1964
0.8775,0.0921,0.203
0.8751,0.0796,0.2099
0.8739,0.0662,0.2174
0.8749,0.0525,0.2255
0.8778,0.0398,0.234
0.8802,0.0266,0.2424
0.8812,0.0144,0.2509
0.8822,0.0027,0.2595
0.8839,-0.0083,0.2675
0.8881,-0.0244,0.2805
0.8903,-0.0342,0.2875
0.8915,-0.0452,0.2946
0.8932,-0.0555,0.3015
0.8966,-0.0655,0.3081
0.8995,-0.0752,0.3144
0.9015,-0.0853,0.3196
0.9022,-0.0933,0.3232
0.9052,-0.0933,0.3291
0.9135,-0.0828,0.3403
0.9196,-0.0823,0.3494
0.9193,-0.0926,0.3506
0.9144,-0.1031,0.3472
0.9086,-0.1112,0.342
0.9032,-0.1185,0.3376
0.8978,-0.1261,0.3342
0.8922,-0.1322,0.332
0.8878,-0.1368,0.3301
0.8854,-0.1415,0.3286
0.8815,-0.1456,0.3283
0.8771,-0.1478,0.3301
0.8719,-0.1507,0.332
0.8678,-0.1532,0.3337
0.8644,-0.1537,0.3357
0.8624,-0.1517,0.3406
0.8624,-0.149,0.3474
0.8619,-0.1485,0.3535
0.8602,-0.1478,0.3574
0.8595,-0.1434,0.3623
0.8607,-0.1373,0.3691
0.8631,-0.1295,0.3762
0.8661,-0.1214,0.3833
0.8697,-0.1121,0.3892
0.8751,-0.1024,0.3938
0.8797,-0.0933,0.399
0.8844,-0.0845,0.4031
0.8883,-0.0757,0.4058
0.8925,-0.0667,0.407
0.8956,-0.0574,0.4075
0.8978,-0.0493,0.4073
0.9003,-0.0418,0.4063
0.903,-0.0337,0.4048
0.9042,-0.0254,0.4029
0.9059,-0.0181,0.4012
0.9086,-0.0107,0.3999
0.9118,-0.0034,0.3987
0.9144,0.0029,0.3965
0.9174,0.0095,0.3926
0.9208,0.0154,0.388
0.9242,0.0208,0.3823
0.9279,0.0254,0.3765
0.9328,0.0288,0.3677
0.9379,0.0315,0.3584
0.9452,0.0335,0.3494
0.955,0.0352,0.3398
0.9653,0.0362,0.3305
0.9758,0.0359,0.32
0.9868,0.0354,0.3088
0.9982,0.0337,0.2983
1.0102,0.0315,0.289
1.0236,0.0288,0.281
1.0378,0.0252,0.2736
1.0525,0.021,0.2658
1.0681,0.0169,0.259
1.084,0.011,0.2526
1.1013,0.0059,0.246
1.1184,0.001,0.2411
1.1353,-0.0037,0.2377
1.1517,-0.0088,0.2348
1.1666,-0.0142,0.2326
1.1807,-0.0198,0.2306
1.1944,-0.0249,0.2279
1.2079,-0.0293,0.2262
1.2206,-0.032,0.2257
1.2311,-0.0332,0.226
1.2391,-0.0352,0.2267
1.2465,-0.0364,0.2272
1.2516,-0.0369,0.2279
1.2543,-0.0354,0.2296
1.255,-0.033,0.2331
1.2521,-0.0305,0.2375
1.2452,-0.0274,0.2421
1.2374,-0.0235,0.248
1.2272,-0.0191,0.2543
1.2152,-0.0139,0.2609
1.2022,-0.01,0.2678
1.1868,-0.0051,0.2748
1.1705,-0.0005,0.2814
1.1526,0.0037,0.288
1.1341,0.0073,0.2949
1.1157,0.0105,0.3027
1.0967,0.012,0.3105
1.0771,0.0115,0.3181
1.0588,0.0088,0.3247
1.0422,0.0042,0.331
1.0249,-0.0012,0.3376
1.0083,-0.0081,0.344
0.9948,-0.0159,0.3506
0.9841,-0.0235,0.3577
0.9762,-0.0305,0.3652
0.9706,-0.0366,0.3723
0.9684,-0.0425,0.3792
0.9714,-0.0476,0.3853
0.9792,-0.0523,0.388
0.9926,-0.0581,0.386
1.0087,-0.0647,0.3794
1.0273,-0.0726,0.3684
1.0508,-0.0814,0.3535
1.0774,-0.0921,0.3364
1.104,-0.1031,0.3193
1.1299,-0.1141,0.3015
1.1587,-0.1251,0.2832
1.189,-0.1353,0.2653
1.2191,-0.1461,0.2477
1.2472,-0.1566,0.2301
1.2765,-0.1669,0.2116
1.3105,-0.1742,0.192
1.3447,-0.1823,0.1761
1.3784,-0.1915,0.163
1.4109,-0.1981,0.151
1.4417,-0.2001,0.1375
1.47,-0.2003,0.1222
1.4964,-0.1984,0.1048
1.5201,-0.195,0.0865
1.5416,-0.1903,0.0665
1.5589,-0.1835,0.0452
1.5709,-0.1749,0.0239
1.5777,-0.1664,0.0027
1.577,-0.159,-0.0169
1.5716,-0.1515,-0.0403
1.5575,-0.1449,-0.0726
1.5408,-0.1366,-0.0992
1.5308,-0.1256,-0.1165
1.522,-0.1153,-0.1307
1.5096,-0.1087,-0.1429
1.4888,-0.1019,-0.1537
1.4588,-0.0948,-0.163
1.4216,-0.0872,-0.171
1.3784,-0.0772,-0.1761
1.3302,-0.066,-0.1776
1.2782,-0.0557,-0.1749
1.2262,-0.0457,-0.1673
1.1758,-0.0352,-0.1542
1.1265,-0.0261,-0.138
1.0776,-0.02,-0.1209
1.031,-0.0149,-0.1014
0.9865,-0.01,-0.0809
0.9506,0.001,-0.0572
0.9223,0.0134,-0.0298
0.8888,0.0149,-0.0076
0.8575,0.0142,0.0134
0.8284,0.012,0.033
0.7986,0.0061,0.0484
0.7681,-0.002,0.0623
0.7368,-0.011,0.0745
0.7068,-0.0208,0.0853
0.6787,-0.0305,0.097
0.654,-0.0393,0.1102
0.6337,-0.0472,0.1212
0.6164,-0.0555,0.128
0.6007,-0.0638,0.1324
0.5849,-0.0718,0.1346
0.5717,-0.0799,0.1371
0.5631,-0.0867,0.1407
0.5548,-0.0936,0.1437
0.5465,-0.0994,0.1471
0.5428,-0.1004,0.1505
0.5487,-0.0938,0.1561
0.5661,-0.0814,0.1647
0.5944,-0.0655,0.1764
0.6325,-0.0491,0.1888
0.6731,-0.0347,0.1989
0.7131,-0.0225,0.206
0.7525,-0.012,0.2096
0.7911,-0.0029,0.2091
0.8292,0.0044,0.204
0.8658,0.0115,0.1947
0.9012,0.0178,0.1827
0.9357,0.0232,0.1686
0.9672,0.0283,0.1534
0.9955,0.0344,0.1373
1.0202,0.0415,0.1204
1.0429,0.0486,0.1048
1.0632,0.0545,0.0914
1.0813,0.0589,0.0784
1.0984,0.0638,0.0662
1.1126,0.0684,0.0552
1.1231,0.0716,0.044
1.1277,0.0723,0.032
1.1263,0.0713,0.0198
1.126,0.0745,0.011
1.1277,0.0809,0.0066
1.1309,0.0887,0.0046
1.1309,0.095,0.0037
1.1333,0.1036,0.0046
1.1309,0.1094,0.0059
1.1209,0.1107,0.0059
1.1082,0.1175,0.0112
1.1016,0.1212,0.0159
1.0906,0.1209,0.0195
1.0749,0.119,0.0225
1.0564,0.116,0.0254
1.0368,0.1121,0.0303
1.0168,0.1065,0.0352
0.9973,0.1014,0.0401
0.9782,0.0963,0.0462
0.9594,0.0916,0.0518
0.9408,0.0865,0.0564
0.9223,0.0811,0.0601
0.9044,0.0755,0.0652
0.8881,0.0699,0.0706
0.8724,0.0645,0.0745
0.8575,0.0586,0.076
0.8429,0.0523,0.0777
0.8297,0.0474,0.0804
0.8182,0.043,0.0823
0.8077,0.0381,0.084
0.7979,0.0337,0.0855
0.7874,0.0291,0.087
0.7784,0.0239,0.0882
0.7703,0.0191,0.0909
0.763,0.0144,0.0928
0.7566,0.0103,0.0945
0.7527,0.0068,0.0997
0.7527,0.0049,0.1063
0.7539,0.0015,0.1114
0.7522,-0.0068,0.1158
0.7471,-0.0161,0.1207
0.7405,-0.0237,0.1239
0.7339,-0.0288,0.1251
0.7275,-0.0344,0.1258
0.7236,-0.0408,0.1285
0.7219,-0.0472,0.1341
0.7209,-0.0525,0.1412
0.72,-0.0577,0.1488
0.7205,-0.0616,0.1564
0.7222,-0.0652,0.1639
0.7246,-0.0699,0.1722
0.7275,-0.0748,0.1801
0.7319,-0.0777,0.1876
0.7366,-0.0806,0.1947
0.7407,-0.0833,0.2006
0.7454,-0.0855,0.2057
0.7515,-0.0867,0.2101
0.7576,-0.088,0.2133
0.7639,-0.0894,0.2157
0.7705,-0.0901,0.2184
0.7776,-0.0911,0.2194
0.7847,-0.0919,0.2191
0.7925,-0.0921,0.2189
0.8013,-0.0914,0.2187
0.8109,-0.0901,0.2182
0.8196,-0.0892,0.2167
0.827,-0.0882,0.215
0.8338,-0.0884,0.2133
0.8372,-0.0931,0.2094
0.8363,-0.1009,0.2018
0.8372,-0.1026,0.1964
0.8426,-0.0972,0.1964
0.8502,-0.0904,0.2013
0.8604,-0.0848,0.2081
0.871,-0.0814,0.2133
0.8824,-0.0774,0.2174
0.8929,-0.0728,0.2199
0.9025,-0.0674,0.2218
0.9127,-0.0623,0.2228
0.9232,-0.0577,0.2238
0.9313,-0.055,0.2243
0.9403,-0.0508,0.2226
0.9479,-0.0484,0.2206
0.955,-0.0462,0.2177
0.9623,-0.0457,0.2147
0.9675,-0.0469,0.2118
0.9706,-0.0486,0.2099
0.9721,-0.052,0.2081
0.9726,-0.0569,0.206
0.9719,-0.0623,0.2042
0.9709,-0.0672,0.2042
0.9689,-0.0711,0.2057
0.967,-0.0745,0.2081
0.9655,-0.0767,0.2113
0.965,-0.0787,0.2155
0.9653,-0.0814,0.2206
0.9657,-0.0836,0.2282
0.9653,-0.085,0.236
0.9645,-0.0865,0.2436
0.9623,-0.0872,0.2524
0.9611,-0.088,0.2624
0.9601,-0.0897,0.2722
0.9577,-0.0911,0.2824
0.9538,-0.0916,0.2922
0.9494,-0.0931,0.3007
0.9445,-0.0938,0.3093
0.9389,-0.0948,0.3183
0.9323,-0.0953,0.3276
0.9252,-0.095,0.3359
0.9169,-0.0948,0.3425
0.9086,-0.0953,0.3481
0.901,-0.095,0.3545
0.8937,-0.0948,0.3604
0.8866,-0.0933,0.3652
0.88,-0.0909,0.3701
0.8724,-0.0887,0.374
0.8653,-0.087,0.377
0.8585,-0.0858,0.3801
0.8526,-0.0836,0.3823
0.8475,-0.0809,0.384
0.8424,-0.0782,0.3853
0.8375,-0.0757,0.3862
0.8341,-0.0733,0.3867
0.8336,-0.0711,0.3867
0.8326,-0.0682,0.3865
0.8324,-0.0655,0.386
0.8338,-0.0625,0.386
0.836,-0.0589,0.3858
0.8385,-0.0552,0.385
0.8416,-0.0523,0.3838
0.8446,-0.0496,0.3816
0.8492,-0.0474,0.3799
0.8551,-0.0454,0.3797
0.8617,-0.0432,0.3804
0.8695,-0.0413,0.3821
0.8788,-0.0408,0.3848
0.8883,-0.0415,0.3877
0.8988,-0.0428,0.3911
0.9093,-0.0437,0.3946
0.9196,-0.0452,0.3975
0.9315,-0.0462,0.4009
0.9442,-0.0469,0.4051
0.9567,-0.0484,0.4085
0.9689,-0.0489,0.4112
0.9816,-0.0491,0.4124
0.9936,-0.0489,0.4131
1.0051,-0.0479,0.4129
1.0151,-0.0476,0.4124
1.0251,-0.0467,0.4109
1.0346,-0.0454,0.4085
1.0437,-0.045,0.4055
1.052,-0.0432,0.4016
1.0593,-0.0408,0.3968
1.0669,-0.0384,0.3921
1.0727,-0.0354,0.388
1.0776,-0.032,0.3838
1.0828,-0.0283,0.3801
1.0874,-0.0247,0.3753
1.0901,-0.0217,0.3711
1.092,-0.0186,0.3674
1.0942,-0.0161,0.3643
1.096,-0.0127,0.3613
1.0964,-0.0078,0.3599
1.0952,-0.0029,0.3604
1.092,0.001,0.3616
1.0884,0.0059,0.3645
1.0855,0.0117,0.3694
1.0828,0.0181,0.3753
1.0798,0.0249,0.3819
1.0757,0.0315,0.3889
1.0693,0.0381,0.3975
1.0625,0.045,0.4063
1.0556,0.0515,0.4148
1.0488,0.0577,0.4253
1.0412,0.0643,0.4358
1.0337,0.0711,0.4456
1.0251,0.0777,0.4556
1.0166,0.0831,0.4664
1.0092,0.0872,0.4779
1.0021,0.0906,0.4876
0.9931,0.0926,0.4967
0.9836,0.0943,0.5047
0.974,0.0953,0.5123
0.9655,0.0938,0.5189
0.9574,0.0914,0.5238
0.9496,0.0892,0.5265
0.9411,0.0853,0.5284
0.9337,0.0814,0.5297
0.9276,0.0772,0.5301
0.9215,0.073,0.5294
0.9159,0.0684,0.5294
0.9125,0.0635,0.5297
0.9098,0.0589,0.5287
0.9086,0.0535,0.526
0.9081,0.0481,0.5204
0.9066,0.0437,0.5133
0.9052,0.0374,0.502
0.9056,0.0371,0.4945
0.9071,0.0379,0.4874
0.9083,0.0386,0.4818
0.9132,0.0386,0.4769
0.9223,0.0322,0.4713
0.934,0.0213,0.4598
0.9464,0.0193,0.4493
0.9618,0.0242,0.4471
0.9799,0.0286,0.4537
0.9995,0.0303,0.4617
1.0197,0.0298,0.4661
1.039,0.0298,0.4659
1.0596,0.03,0.4632
1.0815,0.0296,0.4588
1.1048,0.0274,0.4522
1.1285,0.0237,0.4412
1.1497,0.0154,0.4256
1.1631,-0.0039,0.4031
1.1754,-0.0261,0.3772
1.1917,-0.041,0.3535
1.214,-0.0489,0.3345
1.2372,-0.0572,0.3181
1.2584,-0.0684,0.3025
1.2765,-0.0809,0.2839
1.2956,-0.0926,0.2639
1.3083,-0.1104,0.2424
1.3241,-0.1241,0.2228
1.3408,-0.1375,0.2045
1.3513,-0.1534,0.1849
1.3576,-0.1705,0.1625
1.3596,-0.1864,0.1383
1.3588,-0.2028,0.1126
1.3557,-0.2201,0.0858
1.3505,-0.2375,0.0586
1.3452,-0.2526,0.0315
1.34,-0.2648,0.0061
1.3361,-0.277,-0.0188
1.3322,-0.2853,-0.0428
1.3276,-0.2907,-0.0643
1.3224,-0.2949,-0.084
1.3171,-0.2924,-0.1004
1.3131,-0.2807,-0.1151
1.3109,-0.2731,-0.1246
1.3075,-0.2846,-0.1287
1.298,-0.3056,-0.1339
1.2872,-0.3193,-0.1437
1.2723,-0.324,-0.1568
1.253,-0.3237,-0.1691
1.2301,-0.32,-0.1774
1.2037,-0.3134,-0.1823
1.1732,-0.3059,-0.184
1.1375,-0.3071,-0.1879
1.1021,-0.3049,-0.1925
1.073,-0.2915,-0.1913
1.0471,-0.2729,-0.1867
1.0229,-0.2529,-0.1805
0.998,-0.2309,-0.1732
0.9733,-0.2084,-0.1664
0.9482,-0.1845,-0.1605
0.9237,-0.1581,-0.1551
0.9012,-0.1309,-0.15
0.8788,-0.1046,-0.1446
0.8558,-0.0794,-0.1393
0.8355,-0.0542,-0.1322
0.8177,-0.0286,-0.1239
0.8016,-0.0034,-0.1129
0.7867,0.0242,-0.1024
0.7742,0.0523,-0.0933
0.7657,0.0792,-0.0838
0.7595,0.1058,-0.0706
0.7549,0.1314,-0.0552
0.7549,0.1542,-0.0381
0.76,0.1781,-0.0217
0.7681,0.2025,-0.0071
0.7784,0.2226,0.0105
0.7918,0.2355,0.0332
0.8128,0.2453,0.0603
0.8421,0.2509,0.0865
0.8771,0.2489,0.1075
0.912,0.237,0.1222
0.9425,0.2182,0.1327
0.9679,0.1964,0.1371
0.9892,0.1713,0.1373
1.0073,0.1451,0.1368
1.0249,0.1182,0.1368
1.041,0.0926,0.1383
1.0561,0.0677,0.1415
1.0706,0.0442,0.1466
1.0842,0.0227,0.1539
1.0979,0.0002,0.163
1.1111,-0.0225,0.1715
1.1228,-0.0452,0.1786
1.1316,-0.0667,0.1854
1.1365,-0.086,0.1903
1.1412,-0.1043,0.1942
1.1438,-0.1222,0.1974
1.1436,-0.14,0.1974
1.1399,-0.1559,0.195
1.1324,-0.1678,0.1923
1.1211,-0.1766,0.1901
1.1106,-0.1886,0.1874
1.1016,-0.202,0.1827
1.0903,-0.2167,0.1761
1.0774,-0.2311,0.1678
1.0618,-0.2448,0.159
1.0449,-0.2582,0.1517
1.0288,-0.2719,0.1463
1.0134,-0.2863,0.1417
0.9977,-0.2985,0.1363
0.9821,-0.3093,0.1309
0.967,-0.32,0.1266
0.9516,-0.3298,0.1234
0.9352,-0.3381,0.1209
0.9191,-0.3454,0.12
0.9044,-0.3525,0.1204
0.8895,-0.3582,0.1214
0.8732,-0.3613,0.1236
0.8585,-0.3638,0.127
0.8455,-0.366,0.1314
0.8338,-0.3662,0.1363
0.8238,-0.3645,0.1412
0.8148,-0.3608,0.1485
0.8055,-0.3557,0.159
0.7972,-0.3518,0.1698
0.7908,-0.3498,0.1798
0.785,-0.3462,0.1896
0.7781,-0.3408,0.1984
0.7727,-0.334,0.2081
0.7703,-0.3254,0.2187
0.7705,-0.3164,0.2296
0.7732,-0.3054,0.2406
0.7776,-0.2922,0.2519
0.7852,-0.2758,0.2629
0.7923,-0.2585,0.2726
0.7962,-0.2455,0.279
0.8003,-0.2345,0.2822
0.8074,-0.2221,0.2836
0.8167,-0.2074,0.2849
0.8255,-0.1928,0.2866
0.8338,-0.1771,0.289
0.8409,-0.1608,0.2912
0.8473,-0.1441,0.2932
0.8531,-0.128,0.2946
0.8585,-0.1121,0.2959
0.8617,-0.097,0.2963
0.8634,-0.0826,0.2954
0.8663,-0.0684,0.2934
0.8673,-0.0545,0.291
0.8668,-0.0406,0.288
0.8678,-0.0261,0.2856
0.8697,-0.0125,0.2844
0.871,-0.0002,0.2836
0.8719,0.0125,0.2827
0.8736,0.0254,0.2807
0.8761,0.0376,0.2788
0.8783,0.0489,0.2773
0.8802,0.0591,0.2761
0.8822,0.0682,0.2756
0.8851,0.0757,0.2753
0.8885,0.0833,0.2748
0.8929,0.0897,0.2736
0.8971,0.095,0.2717
0.9012,0.1002,0.269
0.9037,0.1038,0.2665
0.9054,0.1058,0.2656
0.9078,0.1063,0.2639
0.9103,0.1068,0.2614
0.913,0.1055,0.2597
0.9135,0.1029,0.259
0.911,0.1007,0.259
0.9083,0.098,0.2595
0.9059,0.0943,0.2614
0.9017,0.0894,0.2626
0.8951,0.0845,0.2634
0.89,0.0784,0.2663
0.8863,0.0711,0.269
0.8815,0.0643,0.2717
0.8744,0.0577,0.2746
0.8666,0.0511,0.2773
0.8602,0.0442,0.2805
0.8541,0.0364,0.2839
0.848,0.0293,0.288
0.8424,0.023,0.2929
0.8375,0.0171,0.2995
0.8355,0.0107,0.3061
0.8326,0.0015,0.3098
0.8282,-0.0071,0.3117
0.8272,-0.0078,0.3169
0.8289,-0.0032,0.3274
0.826,-0.0078,0.3345
0.8206,-0.0166,0.3362
0.816,-0.0269,0.3359
0.8135,-0.0381,0.3357
0.8116,-0.0479,0.3367
0.8099,-0.0569,0.3371
0.8091,-0.0672,0.3381
0.8096,-0.0774,0.3393
0.8101,-0.0858,0.3403
0.8111,-0.0938,0.3415
0.8121,-0.1004,0.344
0.8138,-0.1068,0.3459
0.8153,-0.1124,0.3467
0.8189,-0.118,0.3469
0.8236,-0.1234,0.3479
0.8265,-0.1287,0.3486
0.8316,-0.1319,0.3474
0.8372,-0.1305,0.3469
0.8448,-0.1253,0.3467
0.8541,-0.1185,0.3467
0.8636,-0.1112,0.3454
0.8729,-0.1031,0.3435
0.8815,-0.0945,0.3413
0.8883,-0.0865,0.3389
0.8946,-0.0796,0.3359
0.8993,-0.0745,0.334
0.9032,-0.0696,0.3337
0.9071,-0.0643,0.3347
0.9098,-0.0594,0.3367
0.9122,-0.0555,0.3393
0.9144,-0.0513,0.3423
0.9179,-0.0469,0.3452
0.9201,-0.0432,0.3486
0.9208,-0.0398,0.3525
0.9218,-0.0362,0.3579
0.924,-0.0332,0.3618
0.9262,-0.031,0.3657
0.9279,-0.0288,0.3694
0.9291,-0.0276,0.3731
0.9303,-0.0264,0.3762
0.933,-0.0242,0.3797
0.9357,-0.023,0.3838
0.9389,-0.0222,0.388
0.942,-0.0222,0.3906
0.9442,-0.0232,0.3936
0.9477,-0.0244,0.3965
0.9521,-0.0244,0.398
0.9569,-0.0242,0.3994
0.9621,-0.0247,0.4007
0.9672,-0.0249,0.4004
0.9704,-0.0242,0.3977
0.9738,-0.0239,0.3933
0.9777,-0.0247,0.3877
0.9816,-0.0266,0.3828
0.9858,-0.0281,0.3753
0.9894,-0.0296,0.3667
0.9936,-0.0313,0.3577
0.998,-0.0332,0.3481
1.0031,-0.0357,0.3384
1.0097,-0.0386,0.3269
1.0161,-0.0406,0.3149
1.0222,-0.0432,0.3029
1.029,-0.0462,0.2922
1.0361,-0.0491,0.2817
1.0442,-0.0535,0.2707
1.053,-0.0589,0.2619
1.0625,-0.0643,0.2553
1.0723,-0.0691,0.2492
1.0825,-0.0738,0.2441
1.0925,-0.0789,0.2426
1.1011,-0.0831,0.2436
1.1101,-0.088,0.2477
1.1199,-0.0938,0.2551
1.1297,-0.0989,0.2651
1.139,-0.1026,0.2775
1.1463,-0.1046,0.2927
1.1509,-0.1058,0.3098
1.1539,-0.1058,0.3276
1.1551,-0.1053,0.3464
1.1531,-0.1048,0.3647
1.1487,-0.1029,0.3814
1.1421,-0.1009,0.3985
1.1328,-0.098,0.4146
1.1219,-0.0936,0.4292
1.1101,-0.0894,0.4424
1.0969,-0.0855,0.4547
1.0813,-0.0814,0.4652
1.0644,-0.076,0.474
1.0469,-0.0701,0.4791
1.029,-0.0643,0.4825
1.0112,-0.0584,0.4859
0.9938,-0.0523,0.4881
0.9787,-0.0469,0.4884
0.9648,-0.0428,0.4874
0.9508,-0.0401,0.4867
0.9379,-0.0406,0.4832
0.9271,-0.0435,0.4784
0.9191,-0.0501,0.4713
0.9139,-0.0606,0.4617
0.91,-0.0718,0.4529
0.9086,-0.0826,0.4439
0.9103,-0.0911,0.4361
0.9159,-0.098,0.4312
0.9249,-0.1016,0.4292
0.9372,-0.1043,0.4283
0.9535,-0.1065,0.4239
0.9733,-0.1082,0.4175
0.9973,-0.1087,0.4085
1.0258,-0.1102,0.3955
1.0574,-0.1124,0.3792
1.0899,-0.1153,0.3601
1.1221,-0.117,0.3381
1.1556,-0.118,0.3147
1.1886,-0.1197,0.2907
1.2215,-0.1246,0.268
1.2611,-0.1297,0.2438
1.3014,-0.1307,0.2204
1.3425,-0.1324,0.2011
1.3857,-0.1368,0.1849
1.4282,-0.1405,0.1715
1.4663,-0.1353,0.161
1.5069,-0.1324,0.1532
1.5469,-0.1336,0.1456
1.5792,-0.1353,0.1351
1.5958,-0.1358,0.1212
1.5961,-0.1478,0.0963
1.6107,-0.1544,0.0828
1.641,-0.1517,0.0704
1.673,-0.1478,0.0545
1.7026,-0.1485,0.0425
1.7268,-0.1529,0.0322
1.7443,-0.1559,0.0195
1.7536,-0.1544,0.0029
1.7492,-0.15,-0.0257
1.7407,-0.1478,-0.0447
1.7304,-0.1451,-0.0452
1.7126,-0.141,-0.0396
1.683,-0.1341,-0.0332
1.6405,-0.1244,-0.0266
1.5853,-0.1114,-0.0222
1.5181,-0.0958,-0.0195
1.4402,-0.0779,-0.0181
1.3571,-0.0569,-0.0154
1.2785,-0.0286,-0.0071
1.2025,-0.0042,0.0066
1.1285,0.0149,0.0217
1.0603,0.0308,0.0371
0.9955,0.0396,0.0498
0.9345,0.0423,0.0589
0.8758,0.0428,0.0684
0.8211,0.0423,0.0833
0.771,0.0398,0.1016
0.73,0.0384,0.1173
0.6933,0.0349,0.127
0.6567,0.0271,0.1324
0.6196,0.0173,0.1358
0.5822,0.0061,0.1397
0.5431,-0.0061,0.1444
0.5064,-0.0169,0.1461
0.4725,-0.0274,0.1429
0.4427,-0.0386,0.1378
0.4168,-0.0496,0.1334
0.3933,-0.0606,0.1273
0.3716,-0.0716,0.1212
0.352,-0.0838,0.116
0.3357,-0.0958,0.1119
0.321,-0.1068,0.1094
0.3086,-0.1168,0.1075
0.2995,-0.1229,0.1048
0.3003,-0.1217,0.1041
0.3218,-0.1097,0.1087
0.3679,-0.0872,0.117
0.4319,-0.063,0.129
0.5067,-0.0428,0.1456
0.5873,-0.0254,0.1622
0.6696,-0.0068,0.1703
0.7498,0.0107,0.1678
0.8248,0.0264,0.1578
0.8949,0.0396,0.1439
0.9606,0.0518,0.1278
1.0192,0.0633,0.1107
1.0666,0.0699,0.0936
1.1008,0.073,0.0784
1.1348,0.0792,0.0711
1.1717,0.0862,0.0701
1.2081,0.0931,0.0713
1.2418,0.0982,0.0718
1.2733,0.1021,0.0704
1.3022,0.1048,0.0684
1.3276,0.107,0.0674
1.3493,0.1097,0.0682
1.3674,0.1126,0.0682
1.3811,0.1143,0.0665
1.3901,0.1163,0.063
1.3957,0.1178,0.0596
1.3974,0.1185,0.0567
1.3928,0.1197,0.0523
1.3779,0.1207,0.0459
1.3505,0.12,0.0391
1.3117,0.116,0.0342
1.2655,0.1094,0.0318
1.2162,0.1033,0.0315
1.1663,0.0985,0.0332
1.1177,0.0945,0.0379
1.071,0.0914,0.0442
1.0276,0.088,0.0528
0.986,0.0848,0.0625
0.9462,0.0816,0.0726
0.91,0.0784,0.0821
0.8763,0.0748,0.0909
0.8438,0.0708,0.1002
0.814,0.0667,0.1085
0.7874,0.0621,0.1156
0.7625,0.0567,0.1222
0.7388,0.0515,0.128
0.718,0.0469,0.1334
0.6931,0.0388,0.1405
0.6782,0.034,0.1441
0.664,0.0293,0.1461
0.6525,0.0249,0.1485
0.643,0.0208,0.1515
0.6345,0.0171,0.1549
0.6266,0.0132,0.1581
0.6205,0.0095,0.1612
0.6171,0.0059,0.1652
0.6147,0.0024,0.1683
0.6117,-0.0012,0.172
0.6115,-0.0032,0.1752
0.612,-0.0044,0.1779
0.6135,-0.0061,0.1808
0.6159,-0.0073,0.184
0.6188,-0.0083,0.1871
0.6222,-0.0086,0.1903
0.6271,-0.0095,0.194
0.6332,-0.0105,0.1969
0.6403,-0.0117,0.1986
0.6474,-0.0127,0.1996
0.654,-0.0139,0.2003
0.6594,-0.0154,0.2016
0.6645,-0.0159,0.2028
0.6706,-0.0156,0.2038
0.6782,-0.0154,0.2062
0.687,-0.0161,0.2091
0.6955,-0.0173,0.2116
0.7046,-0.0183,0.2135
0.7136,-0.0205,0.2162
0.7229,-0.0227,0.2199
0.7322,-0.0242,0.2253
0.7434,-0.0254,0.2296
0.7552,-0.0269,0.2336
0.7661,-0.0281,0.237
0.7776,-0.0296,0.2399
0.7898,-0.0303,0.2433
0.8025,-0.032,0.246
0.8155,-0.0347,0.247
0.8284,-0.0388,0.2472
0.8375,-0.0462,0.2458
0.8458,-0.0518,0.2441
0.8587,-0.053,0.245
0.8739,-0.0533,0.2472
0.8898,-0.0545,0.2492
0.903,-0.0559,0.2516
0.9135,-0.0579,0.2526
0.9227,-0.0621,0.2509
0.9359,-0.0613,0.2507
0.9535,-0.0574,0.2511
0.9711,-0.0555,0.2509
0.985,-0.0572,0.2487
0.9943,-0.0601,0.2448
1.0004,-0.0638,0.2399
0.9999,-0.0699,0.2336
1.0051,-0.0711,0.2304
1.0192,-0.065,0.2301
1.0327,-0.0611,0.2301
1.0346,-0.0635,0.2282
1.0322,-0.0672,0.2248
1.0388,-0.0635,0.2238
1.0447,-0.0584,0.2233
1.0407,-0.0591,0.2226
1.0403,-0.0572,0.2238
1.0456,-0.0501,0.2255
1.0486,-0.043,0.227
1.0461,-0.0386,0.2277
1.0403,-0.0371,0.2277
1.0317,-0.0362,0.2272
1.0214,-0.0366,0.2267
1.0107,-0.0374,0.226
1.0002,-0.0381,0.2245
0.9899,-0.0376,0.2238
0.9799,-0.0369,0.2235
0.9704,-0.0359,0.2235
0.9613,-0.0354,0.2228
0.9526,-0.0357,0.2226
0.9442,-0.0342,0.2238
0.9364,-0.0322,0.2248
0.9284,-0.0313,0.2253
0.9223,-0.031,0.2262
0.9169,-0.0315,0.2284
0.9108,-0.031,0.2326
0.9047,-0.03,0.2365
0.8993,-0.0303,0.2399
0.8932,-0.0308,0.245
0.8881,-0.0308,0.2511
0.8839,-0.0308,0.2585
0.8802,-0.031,0.2658
0.8768,-0.0315,0.2734
0.8741,-0.0322,0.2812
0.8714,-0.0332,0.2897
0.8692,-0.0347,0.2993
0.868,-0.0371,0.3103
0.8668,-0.0391,0.322
0.8663,-0.0406,0.334
0.8678,-0.0428,0.3452
0.869,-0.0472,0.3547
0.8717,-0.0513,0.3645
0.8756,-0.0559,0.3743
0.879,-0.0621,0.3826
0.8834,-0.0682,0.3889
0.8898,-0.074,0.3941
0.8968,-0.0809,0.3972
0.9042,-0.0872,0.3997
0.9118,-0.0928,0.4021
0.9201,-0.0987,0.4036
0.9279,-0.1036,0.4041
0.9372,-0.1073,0.4043
0.9447,-0.1102,0.4029
0.9518,-0.1124,0.4014
0.9587,-0.1143,0.3997
0.965,-0.1156,0.3972
0.9716,-0.1158,0.3948
0.9789,-0.1148,0.3931
0.986,-0.1126,0.3899
0.9929,-0.1092,0.3862
1.0002,-0.106,0.3831
1.0056,-0.1024,0.3789
1.0112,-0.0989,0.3753
1.0183,-0.0943,0.3731
1.0239,-0.0899,0.3699
1.029,-0.0862,0.366
1.0341,-0.0833,0.3635
1.0388,-0.0809,0.3613
1.0427,-0.0782,0.3579
1.0471,-0.0752,0.355
1.05,-0.0733,0.3523
1.0517,-0.0716,0.3486
1.0522,-0.0696,0.345
1.0527,-0.0684,0.3413
1.0527,-0.0677,0.3381
1.053,-0.0662,0.3359
1.0539,-0.0645,0.3354
1.0554,-0.063,0.3345
1.0576,-0.0608,0.3327
1.0593,-0.0584,0.332
1.0618,-0.0555,0.3313
1.0647,-0.0528,0.3303
1.0676,-0.0501,0.3305
1.0713,-0.0462,0.331
1.0762,-0.0415,0.3327
1.082,-0.0364,0.3359
1.0872,-0.0298,0.3384
1.0918,-0.0225,0.3411
1.0955,-0.0149,0.3442
1.0974,-0.0078,0.3462
1.0996,-0.0012,0.3489
1.1011,0.0066,0.3528
1.0994,0.0144,0.355
1.096,0.0208,0.3572
1.0903,0.0254,0.3606
1.0825,0.0293,0.3647
1.0725,0.0322,0.3691
1.061,0.034,0.3738
1.0491,0.0357,0.3797
1.0354,0.0369,0.3855
1.0229,0.0357,0.3926
1.0097,0.0335,0.4009
0.9948,0.0313,0.409
0.9802,0.0296,0.417
0.9665,0.0271,0.4253
0.9535,0.0235,0.4344
0.9418,0.0186,0.4441
0.9298,0.0139,0.4537
0.9186,0.0086,0.462
0.9098,0.0034,0.4693
0.9017,-0.0024,0.4771
0.8951,-0.0086,0.484
0.8885,-0.0149,0.4889
0.881,-0.0198,0.494
0.8749,-0.0247,0.4999
0.8712,-0.0308,0.5047
0.8688,-0.0362,0.5094
0.8661,-0.0391,0.5135
0.8644,-0.0398,0.5187
0.8624,-0.0379,0.5231
0.8602,-0.0347,0.527
0.8609,-0.0366,0.5297
0.8639,-0.0337,0.5306
0.87,-0.0237,0.5331
0.8797,-0.012,0.5375
0.8915,-0.0024,0.5409
0.9044,0.0039,0.5389
0.9176,0.0095,0.5341
0.9293,0.0154,0.5294
0.9408,0.0222,0.5272
0.9535,0.0298,0.526
0.9677,0.0376,0.5248
0.9821,0.0452,0.5231
0.9977,0.0503,0.5192
1.0166,0.054,0.5116
1.0354,0.0559,0.4979
1.0525,0.0569,0.4786
1.0688,0.055,0.4561
1.0864,0.0489,0.4305
1.1043,0.0418,0.4026
1.1223,0.0335,0.3733
1.147,0.0154,0.3288
1.1541,-0.0046,0.2932
1.1646,-0.0193,0.2597
1.1805,-0.0288,0.2294
1.1964,-0.0364,0.1994
1.2098,-0.0474,0.1693
1.2228,-0.0633,0.138
1.2308,-0.0821,0.1055
1.2303,-0.1024,0.0726
1.2362,-0.1202,0.0445
1.2465,-0.1371,0.0178
1.2592,-0.1524,-0.0088
1.2721,-0.1661,-0.034
1.2843,-0.1793,-0.0584
1.2956,-0.1913,-0.0826
1.3063,-0.2038,-0.1063
1.3163,-0.216,-0.1285
1.3241,-0.2233,-0.1495
1.3324,-0.2262,-0.1656
1.3473,-0.2328,-0.1747
1.364,-0.2448,-0.1823
1.375,-0.259,-0.1925
1.3769,-0.2695,-0.2062
1.372,-0.2697,-0.2216
1.3654,-0.2656,-0.2362
1.3583,-0.2695,-0.2436
1.3498,-0.2756,-0.2477
1.3368,-0.2785,-0.2524
1.3188,-0.2775,-0.2568
1.2968,-0.2729,-0.2595
1.2738,-0.2648,-0.2599
1.2526,-0.2533,-0.258
1.2315,-0.2384,-0.2548
1.2081,-0.2209,-0.2519
1.1822,-0.2035,-0.2477
1.1563,-0.1859,-0.2424
1.1319,-0.1683,-0.2384
1.107,-0.1471,-0.2355
1.0818,-0.1226,-0.2321
1.0569,-0.0985,-0.2274
1.03,-0.0738,-0.2216
1.0046,-0.0469,-0.2145
0.9833,-0.0195,-0.2055
0.9648,0.0059,-0.1962
0.944,0.0313,-0.1879
0.9237,0.0559,-0.1776
0.9093,0.0806,-0.1637
0.8995,0.1051,-0.15
0.8922,0.1273,-0.1402
0.8844,0.1493,-0.1366
0.8763,0.1742,-0.1378
0.8727,0.1964,-0.1317
0.8683,0.2167,-0.1214
0.8695,0.2353,-0.1055
0.878,0.2533,-0.0867
0.8905,0.2744,-0.0743
0.9056,0.2902,-0.0591
0.9259,0.2917,-0.0298
0.9521,0.2766,0.0066
0.9804,0.2529,0.0393
1.0056,0.2235,0.0645
1.0263,0.1896,0.0818
1.0434,0.1534,0.0909
1.0571,0.1192,0.0955
1.0669,0.0882,0.0972
1.0749,0.0608,0.098
1.0811,0.0352,0.0985
1.0862,0.0117,0.1007
1.0928,-0.0107,0.1041
1.0991,-0.0318,0.1087
1.1043,-0.0506,0.1168
1.1104,-0.0691,0.1263
1.1177,-0.0872,0.1368
1.1241,-0.1036,0.148
1.1289,-0.1182,0.1608
1.1326,-0.1305,0.1722
1.1343,-0.1375,0.1827
1.136,-0.1459,0.1928
1.1368,-0.1576,0.1998
1.1355,-0.1698,0.2028
1.1309,-0.1805,0.2025
1.1245,-0.191,0.2003
1.1153,-0.2016,0.1979
1.1023,-0.2118,0.193
1.0879,-0.2206,0.1874
1.0703,-0.2284,0.181
1.0498,-0.236,0.1747
1.0283,-0.2436,0.1693
1.009,-0.2497,0.1652
0.9907,-0.2553,0.1612
0.9694,-0.2604,0.1576
0.9479,-0.2651,0.1534
0.9259,-0.2685,0.1512
0.9037,-0.2702,0.1476
0.8802,-0.2707,0.1439
0.8568,-0.2709,0.1415
0.8333,-0.2709,0.1397
0.8096,-0.2695,0.1393
0.7869,-0.2663,0.1397
0.7661,-0.2621,0.1429
0.7461,-0.2585,0.1478
0.7283,-0.2533,0.1532
0.7134,-0.248,0.1598
0.699,-0.2426,0.1673
0.6872,-0.236,0.1754
0.6777,-0.2304,0.1835
0.6689,-0.2257,0.1913
0.6633,-0.2187,0.1986
0.6594,-0.2094,0.2062
0.6538,-0.204,0.2143
0.6491,-0.1989,0.2221
0.6467,-0.1928,0.2294
0.6472,-0.1871,0.2365
0.6523,-0.1805,0.2446
0.6606,-0.172,0.2514
0.6714,-0.1617,0.2555
0.687,-0.1471,0.2609
0.7031,-0.1327,0.2665
0.7148,-0.1229,0.2673
0.7256,-0.1138,0.2639
0.7368,-0.1046,0.2595
0.7495,-0.0923,0.2555
0.7622,-0.0787,0.2536
0.7752,-0.0643,0.2516
0.7881,-0.0493,0.2502
0.7994,-0.0344,0.2492
0.8104,-0.0198,0.2477
0.8206,-0.0051,0.2446
0.8287,0.009,0.2409
0.8355,0.0213,0.2382
0.8429,0.0332,0.2358
0.8492,0.0452,0.2326
0.8521,0.0564,0.2292
0.8548,0.066,0.2277
0.858,0.0752,0.227
0.8619,0.0823,0.226
0.8663,0.0884,0.224
0.8702,0.095,0.2216
0.8739,0.1016,0.2194
0.8788,0.108,0.2179
0.8837,0.1121,0.2177
0.8863,0.1134,0.216
0.8888,0.1124,0.2138
0.8917,0.1109,0.2111
0.8956,0.1094,0.2084
0.901,0.1082,0.2069
0.9056,0.1063,0.2067
0.9103,0.1029,0.2055
0.9142,0.0987,0.2033
0.9181,0.0941,0.2006
0.9208,0.0892,0.1974
0.9227,0.0848,0.1947
0.9242,0.0784,0.1937
0.9242,0.0713,0.1928
0.9232,0.0638,0.192
0.9223,0.0552,0.1915
0.9208,0.0474,0.192
0.9205,0.0396,0.1923
0.9208,0.0335,0.1937
0.9225,0.0308,0.1976
0.924,0.0249,0.2016
0.9237,0.0183,0.2033
0.9271,0.022,0.2062
0.9301,0.0239,0.2125
0.9267,0.0181,0.2165
0.9223,0.0083,0.2182
0.9183,-0.0007,0.2177
0.9161,-0.01,0.2184
0.9144,-0.0205,0.2206
0.9103,-0.0296,0.2245
0.9039,-0.0362,0.2299
0.8995,-0.044,0.2355
0.8951,-0.0518,0.2416
0.8903,-0.0579,0.2482
0.8866,-0.065,0.2553
0.8844,-0.0718,0.2624
0.8815,-0.0752,0.2695
0.8797,-0.0784,0.277
0.8797,-0.084,0.2871
0.878,-0.0894,0.2956
0.8749,-0.0933,0.3022
0.8722,-0.0953,0.3086
0.869,-0.0943,0.3156
0.8653,-0.0899,0.3247
0.8644,-0.0831,0.3345
0.8644,-0.0762,0.3435
0.8646,-0.0701,0.3525
0.8653,-0.0652,0.3599
0.8653,-0.0618,0.3657
0.8648,-0.0591,0.3711
0.8646,-0.0559,0.3757
0.8624,-0.054,0.3792
0.8587,-0.053,0.3819
0.8553,-0.0533,0.3843
0.8517,-0.0552,0.3858
0.847,-0.0581,0.3862
0.8424,-0.0611,0.3867
0.8375,-0.066,0.387
0.8326,-0.0704,0.3867
0.8294,-0.0745,0.387
0.8272,-0.0794,0.3877
0.8253,-0.0838,0.3889
0.8297,-0.0796,0.3941
0.8375,-0.0752,0.3999
0.8436,-0.076,0.4012
0.8543,-0.0757,0.4026
0.8553,-0.0867,0.3987
0.8548,-0.0926,0.3953
0.8534,-0.1033,0.3931
0.849,-0.1143,0.3904
0.8492,-0.1153,0.3906
0.8551,-0.1143,0.3914
0.8614,-0.1151,0.3897
0.8675,-0.1136,0.388
0.8768,-0.1085,0.3882
0.8893,-0.1009,0.388
0.9039,-0.0945,0.3872
0.9291,-0.085,0.3838
0.9464,-0.0789,0.3792
0.9633,-0.0735,0.3718
0.9799,-0.0684,0.364
0.996,-0.0635,0.3555
1.0097,-0.0596,0.3452
1.0217,-0.0562,0.3342
1.0327,-0.0528,0.322
1.0429,-0.0496,0.311
1.0522,-0.0467,0.2993
1.0598,-0.0447,0.2873
1.0662,-0.0432,0.2756
1.0715,-0.0418,0.2639
1.0764,-0.0401,0.2524
1.0806,-0.0396,0.2414
1.0842,-0.0403,0.2311
1.0879,-0.0415,0.2226
1.0913,-0.043,0.2152
1.0942,-0.0447,0.2081
1.0962,-0.0476,0.202
1.0979,-0.0503,0.1981
1.1001,-0.0528,0.1959
1.1023,-0.0552,0.195
1.1043,-0.0579,0.1954
1.106,-0.0606,0.1981
1.1077,-0.0623,0.2033
1.1104,-0.0647,0.2096
1.1128,-0.066,0.2165
1.1143,-0.0662,0.2245
1.1153,-0.0665,0.2328
1.1175,-0.0662,0.2419
1.1192,-0.0645,0.2509
1.1199,-0.0623,0.2614
1.1194,-0.0594,0.2724
1.1177,-0.0567,0.2841
1.1148,-0.0537,0.2954
1.1116,-0.0511,0.3068
1.1082,-0.0476,0.3191
1.103,-0.044,0.3296
1.0964,-0.0408,0.3396
1.0891,-0.0371,0.3503
1.0793,-0.0332,0.3611
1.0684,-0.0296,0.3718
1.0566,-0.0261,0.3826
1.0456,-0.0225,0.3928
1.0339,-0.0183,0.4026
1.0205,-0.0154,0.4131
1.0046,-0.0139,0.4226
0.9882,-0.012,0.4305
0.9728,-0.012,0.4376
0.9577,-0.0132,0.4439
0.9438,-0.0151,0.4476
0.9313,-0.0193,0.4488
0.9201,-0.0247,0.4498
0.9096,-0.0293,0.4505
0.8998,-0.0327,0.4507
0.8929,-0.0362,0.4522
0.8893,-0.0386,0.4529
0.8905,-0.0401,0.4498
0.8986,-0.0398,0.4449
0.9118,-0.0381,0.4371
0.9281,-0.0371,0.4251
0.9474,-0.0369,0.409
0.9701,-0.0366,0.3887
0.9975,-0.0369,0.366
1.0278,-0.0386,0.3411
1.0588,-0.0415,0.3152
1.0906,-0.0447,0.2888
1.1214,-0.0489,0.2648
1.1526,-0.0542,0.2446
1.1854,-0.0599,0.2248
1.2174,-0.0674,0.2064
1.2508,-0.0755,0.1888
1.2865,-0.0828,0.1705
1.3234,-0.0916,0.1549
1.3586,-0.1007,0.1412
1.3903,-0.1043,0.1292
1.4226,-0.1038,0.1178
1.4568,-0.1053,0.107
1.4893,-0.1075,0.0967
1.5201,-0.1077,0.0845
1.5467,-0.1058,0.0701
1.5628,-0.1033,0.0511
1.5474,-0.1046,0.0171
1.5306,-0.109,-0.0066
1.5428,-0.1031,-0.0164
1.566,-0.0914,-0.0276
1.5914,-0.0855,-0.0366
1.6144,-0.085,-0.041
1.6327,-0.0875,-0.0452
1.6476,-0.0887,-0.052
1.6564,-0.0875,-0.0591
1.6584,-0.0862,-0.0669
1.6544,-0.088,-0.0748
1.6432,-0.0916,-0.084
1.6222,-0.0992,-0.095
1.5853,-0.1077,-0.108
1.5338,-0.1124,-0.118
1.4737,-0.1136,-0.1246
1.4106,-0.1129,-0.1266
1.3476,-0.1109,-0.1231
1.288,-0.108,-0.1175
1.2374,-0.0943,-0.1087
1.1947,-0.0804,-0.0955
1.1534,-0.0809,-0.0833
1.1109,-0.087,-0.0735
1.0684,-0.0931,-0.0645
1.0266,-0.0992,-0.0584
0.987,-0.1063,-0.055
0.9499,-0.1141,-0.0537
0.9139,-0.1214,-0.0542
0.8805,-0.1297,-0.0564
0.8509,-0.1395,-0.0599
0.827,-0.1485,-0.0621
0.8109,-0.1564,-0.0633
0.7967,-0.1652,-0.0677
0.7801,-0.1764,-0.0713
0.7625,-0.1881,-0.0738
0.7446,-0.1947,-0.0789
0.7275,-0.1981,-0.088
0.7136,-0.2013,-0.0958
0.7043,-0.203,-0.0987
0.7048,-0.2008,-0.0953
0.7195,-0.1923,-0.0855
0.7478,-0.1764,-0.0733
0.7864,-0.1559,-0.0618
0.8282,-0.1339,-0.0506
0.8683,-0.1116,-0.0406
0.9054,-0.0897,-0.0322
0.9376,-0.0682,-0.0242
0.9675,-0.0469,-0.0159
0.9948,-0.0257,-0.0066
1.0185,-0.0056,0.0032
1.039,0.0122,0.0151
1.0564,0.0288,0.0286
1.0713,0.0447,0.0415
1.0845,0.0599,0.0542
1.0955,0.073,0.0665
1.1038,0.084,0.0782
1.1087,0.0948,0.0887
1.1113,0.1046,0.098
1.1116,0.1134,0.1058
1.1089,0.1207,0.1129
1.1052,0.1261,0.119
1.0984,0.1295,0.1231
1.0889,0.1324,0.1261
1.0784,0.1334,0.1295
1.0676,0.1329,0.1327
1.0556,0.1322,0.1334
1.0427,0.1309,0.1344
1.0283,0.1285,0.1353
1.0139,0.1248,0.1363
0.9999,0.1207,0.1366
0.9863,0.1163,0.1371
0.9728,0.1112,0.1383
0.9584,0.1055,0.1383
0.9442,0.0987,0.1368
0.9303,0.0914,0.1351
0.9164,0.0845,0.1346
0.9034,0.077,0.1334
0.8898,0.0699,0.1302
0.8756,0.063,0.1251
0.8609,0.0557,0.1212
0.8473,0.0479,0.1185
0.8346,0.0403,0.1158
0.8221,0.033,0.1114
0.8106,0.0244,0.1063
0.7996,0.0151,0.1011
0.7918,0.0073,0.097
0.785,-0.0002,0.0931
0.7776,-0.0078,0.0901
0.7705,-0.0139,0.0865
0.7635,-0.0195,0.0823
0.7569,-0.0257,0.0801
0.752,-0.0318,0.0787
0.7493,-0.0371,0.0767
0.7478,-0.0415,0.0757
0.7476,-0.0459,0.0767
0.7481,-0.0513,0.0796
0.7495,-0.0574,0.0831
0.7522,-0.063,0.0865
0.7549,-0.0677,0.0892
0.7569,-0.0721,0.0926
0.7576,-0.076,0.0967
0.7586,-0.0801,0.1009
0.7598,-0.0828,0.1053
0.7608,-0.0838,0.1114
0.7617,-0.0845,0.1178
0.7627,-0.0855,0.1251
0.7637,-0.0858,0.1329
0.7649,-0.085,0.141
0.7671,-0.085,0.1495
0.7686,-0.084,0.1578
0.7696,-0.0821,0.1656
0.7701,-0.0806,0.1732
0.771,-0.0789,0.1783
0.772,-0.0765,0.182
0.7737,-0.074,0.1862
0.7745,-0.0716,0.1896
0.7745,-0.0689,0.1913
0.7757,-0.0665,0.192
0.7771,-0.064,0.1918
0.7781,-0.0603,0.191
0.7801,-0.0569,0.1906
0.7832,-0.0552,0.1901
0.7869,-0.0528,0.1881
0.792,-0.0484,0.1871
0.7969,-0.0447,0.1864
0.7999,-0.0418,0.1859
0.8035,-0.0384,0.1832
0.8052,-0.0366,0.1798
0.8057,-0.0362,0.1781
0.8047,-0.0381,0.1754
0.8096,-0.0359,0.1754
0.8167,-0.0308,0.1786
0.824,-0.0254,0.1808
0.8302,-0.0208,0.1827
0.8353,-0.0178,0.1857
0.8397,-0.0169,0.1876
0.8419,-0.0188,0.1884
0.8465,-0.0169,0.1908
0.8568,-0.0122,0.1942
0.8631,-0.0134,0.1957
0.868,-0.0139,0.1972
0.8778,-0.009,0.2003
0.8837,-0.0083,0.202
0.8856,-0.0093,0.202
0.8929,-0.0046,0.2042
0.9003,-0.001,0.2062
0.8993,-0.0034,0.2055
0.901,-0.0024,0.2042
0.9088,0.0029,0.203
0.9164,0.0064,0.2018
0.921,0.0068,0.1994
0.9218,0.0061,0.1969
0.921,0.0059,0.1932
0.9193,0.0056,0.1881
0.9181,0.0056,0.1832
0.9164,0.0051,0.1796
0.9132,0.0039,0.1757
0.9098,0.0032,0.1717
0.9069,0.0034,0.1691
0.9047,0.0029,0.1681
0.9025,0.0022,0.1673
0.9005,0.0017,0.1671
0.8981,0.0012,0.1671
0.8956,0.0007,0.1669
0.8922,0.0,0.1664
0.8885,-0.001,0.1666
0.8859,-0.001,0.1676
0.8839,-0.0017,0.1698
0.8819,-0.0027,0.1717
0.8797,-0.0054,0.1747
0.8771,-0.0086,0.1791
0.8732,-0.0127,0.1842
0.8697,-0.0173,0.1898
0.8663,-0.0225,0.1957
0.8644,-0.0281,0.203
0.8634,-0.0335,0.2101
0.8629,-0.0388,0.2177
0.8631,-0.0445,0.2255
0.8634,-0.0496,0.2343
0.8651,-0.0545,0.2436
0.8678,-0.0591,0.2516
0.8697,-0.0643,0.2599
0.8707,-0.0696,0.2697
0.8724,-0.0757,0.2797
0.8739,-0.0814,0.2895
0.8756,-0.086,0.2995
0.8771,-0.0909,0.31
0.8788,-0.0953,0.3208
0.8817,-0.0997,0.333
0.8839,-0.1046,0.343
0.8854,-0.1085,0.3525
0.8876,-0.1134,0.363
0.8893,-0.1168,0.3735
0.892,-0.1187,0.3831
0.8946,-0.12,0.3919
0.8971,-0.1209,0.4007
0.9,-0.1217,0.4097
0.9034,-0.1214,0.418
0.9071,-0.1202,0.4266
0.9108,-0.1187,0.4344
0.9152,-0.1173,0.44
0.9186,-0.1153,0.4441
0.9213,-0.1126,0.4473
0.9245,-0.1102,0.4485
0.9274,-0.1065,0.4485
0.9296,-0.1033,0.4471
0.932,-0.0999,0.4434
0.935,-0.0977,0.4385
0.9372,-0.095,0.4332
0.9391,-0.0909,0.427
0.9413,-0.0862,0.42
0.9435,-0.0809,0.4134
0.946,-0.0755,0.4073
0.9491,-0.0706,0.3999
0.953,-0.066,0.3926
0.9569,-0.0616,0.385
0.9613,-0.0574,0.3765
0.9665,-0.0533,0.3687
0.9719,-0.0498,0.3608
0.9782,-0.0464,0.3533
0.9858,-0.0428,0.3472
0.9929,-0.0401,0.3406
1.0002,-0.0374,0.3354
1.0085,-0.0352,0.3315
1.0178,-0.0335,0.3279
1.0283,-0.0305,0.3247
1.0395,-0.0274,0.3215
1.051,-0.0252,0.3191
1.0627,-0.0239,0.3159
1.0752,-0.0227,0.3125
1.0877,-0.0215,0.31
1.1001,-0.0191,0.3073
1.1128,-0.0166,0.3037
1.125,-0.0144,0.301
1.136,-0.0117,0.2981
1.1473,-0.0086,0.2951
1.1585,-0.0039,0.2922
1.168,0.0005,0.2895
1.1766,0.0046,0.2873
1.1842,0.0088,0.2871
1.189,0.0129,0.2883
1.191,0.0178,0.2907
1.1905,0.0222,0.2944
1.1866,0.0257,0.3
1.1788,0.0276,0.3071
1.168,0.0286,0.3152
1.1543,0.0274,0.3222
1.1377,0.0247,0.3286
1.1184,0.0215,0.3342
1.0982,0.0178,0.3401
1.0774,0.012,0.3476
1.0569,0.0046,0.3572
1.0368,-0.0029,0.3679
1.0168,-0.011,0.3784
0.997,-0.0198,0.3889
0.978,-0.0288,0.3997
0.9599,-0.0386,0.4114
0.9416,-0.0498,0.4226
0.924,-0.0613,0.4336
0.9086,-0.0728,0.4449
0.8934,-0.0845,0.4556
0.8793,-0.0941,0.4654
0.8666,-0.1026,0.4757
0.8565,-0.1114,0.4864
0.8482,-0.1195,0.4972
0.8441,-0.1258,0.5069
0.8424,-0.1295,0.5174
0.8411,-0.1307,0.527
0.8433,-0.1305,0.537
0.848,-0.1275,0.5472
0.8541,-0.1222,0.5568
0.8641,-0.1158,0.5668
0.8778,-0.1087,0.5758
0.8956,-0.1031,0.5829
0.9142,-0.0982,0.5876
0.9328,-0.0943,0.5888
0.9511,-0.0909,0.5902
0.9682,-0.0855,0.5944
0.9843,-0.0787,0.5981
1.0004,-0.0706,0.5995
1.0168,-0.0608,0.5966
1.0327,-0.052,0.5868
1.0491,-0.0432,0.5705
1.0644,-0.0327,0.5485
1.0786,-0.023,0.5228
1.0925,-0.0147,0.494
1.107,-0.0088,0.4622
1.1228,-0.0037,0.4275
1.1397,-0.0007,0.3926
1.1558,0.0007,0.3582
1.1722,0.0007,0.323
1.1886,-0.0015,0.2863
1.2032,-0.0061,0.2482
1.2122,-0.0161,0.2067
1.2115,-0.0322,0.1603
1.2184,-0.0418,0.1182
1.2301,-0.0464,0.0816
1.232,-0.0557,0.0481
1.2333,-0.0667,0.0188
1.2408,-0.0735,-0.0076
1.2511,-0.0804,-0.034
1.2616,-0.0894,-0.0586
1.2719,-0.097,-0.0801
1.2811,-0.1048,-0.0977
1.2902,-0.1134,-0.1116
1.299,-0.1229,-0.1236
1.3073,-0.1327,-0.1341
1.3141,-0.1422,-0.1434
1.3197,-0.152,-0.1515
1.3249,-0.162,-0.1583
1.3288,-0.1722,-0.1639
1.3334,-0.1827,-0.1686
1.3378,-0.193,-0.1735
1.3417,-0.2023,-0.1786
1.3439,-0.213,-0.1827
1.3427,-0.2243,-0.1879
1.339,-0.2355,-0.1935
1.3327,-0.2463,-0.1986
1.3239,-0.2563,-0.204
1.3109,-0.267,-0.2108
1.2936,-0.2761,-0.2177
1.2772,-0.277,-0.2221
1.2616,-0.2741,-0.2255
1.243,-0.2722,-0.2299
1.2213,-0.269,-0.2353
1.1993,-0.2612,-0.2389
1.1646,-0.2489,-0.2421
1.138,-0.2453,-0.2472
1.1106,-0.2348,-0.2514
1.085,-0.2169,-0.2514
1.0627,-0.1986,-0.2487
1.0434,-0.1793,-0.2446
1.0251,-0.1586,-0.2392
1.0063,-0.1341,-0.2318
0.9887,-0.1087,-0.2231
0.9728,-0.0865,-0.2133
0.9596,-0.064,-0.2035
0.9494,-0.0388,-0.1942
0.9406,-0.0132,-0.1874
0.9289,0.0147,-0.1859
0.9169,0.0435,-0.1852
0.9064,0.0716,-0.181
0.8917,0.0987,-0.1764
0.8827,0.1217,-0.1639
0.8783,0.1498,-0.1539
0.8705,0.1803,-0.1454
0.8592,0.2028,-0.1261
0.8499,0.2167,-0.0958
0.847,0.2299,-0.0625
0.8507,0.2453,-0.0318
0.8624,0.2614,-0.0034
0.8815,0.2768,0.0222
0.9056,0.2905,0.0457
0.9342,0.2993,0.065
0.9633,0.301,0.0787
0.9882,0.2932,0.0875
1.0051,0.2736,0.0906
1.0131,0.246,0.0894
1.0153,0.214,0.0855
1.0153,0.1796,0.0818
1.0166,0.1461,0.0789
1.0197,0.1143,0.0787
1.0244,0.0855,0.0809
1.0298,0.0581,0.0853
1.0359,0.032,0.0911
1.0427,0.0073,0.097
1.0488,-0.0164,0.1024
1.0534,-0.0381,0.1075
1.0574,-0.0562,0.1138
1.0593,-0.0704,0.1214
1.0605,-0.0872,0.1278
1.0637,-0.1063,0.1327
1.0642,-0.1256,0.1361
1.0598,-0.1451,0.1388
1.053,-0.1637,0.1412
1.0444,-0.1813,0.1446
1.0346,-0.1979,0.148
1.0249,-0.2162,0.15
1.0131,-0.2338,0.1507
0.9999,-0.2507,0.1512
0.987,-0.2682,0.152
0.9716,-0.2846,0.1522
0.9565,-0.3005,0.1529
0.9406,-0.3144,0.1537
0.9245,-0.3274,0.1542
0.9078,-0.3389,0.1551
0.891,-0.3498,0.1573
0.8744,-0.3608,0.1586
0.8582,-0.3684,0.16
0.8441,-0.3745,0.1639
0.8319,-0.3794,0.1681
0.8196,-0.3816,0.172
0.8084,-0.3823,0.1779
0.7999,-0.3833,0.1852
0.7925,-0.3845,0.1913
0.7847,-0.3848,0.1954
0.7776,-0.3823,0.2008
0.7745,-0.3767,0.2086
0.7769,-0.3662,0.2184
0.7815,-0.352,0.2287
0.7857,-0.3391,0.2375
0.7913,-0.3261,0.2448
0.7986,-0.312,0.2511
0.8079,-0.2966,0.257
0.8165,-0.2817,0.2617
0.8253,-0.267,0.2646
0.8338,-0.2519,0.2673
0.8419,-0.2362,0.268
0.8502,-0.2211,0.2656
0.8578,-0.2057,0.2592
0.8641,-0.1891,0.2509
0.87,-0.1725,0.2426
0.8751,-0.1549,0.2323
0.88,-0.1371,0.2201
0.8829,-0.118,0.2091
0.8832,-0.0999,0.2003
0.8807,-0.0833,0.1928
0.8783,-0.0662,0.1859
0.8751,-0.0489,0.1798
0.8722,-0.0325,0.1757
0.87,-0.0173,0.1722
0.867,-0.0032,0.1695
0.8648,0.0105,0.1673
0.8641,0.023,0.1654
0.8644,0.034,0.1647
0.8658,0.0432,0.1656
0.868,0.0513,0.1652
0.871,0.0581,0.1654
0.8749,0.0633,0.1669
0.8795,0.0669,0.1695
0.8824,0.0706,0.1727
0.8846,0.0752,0.1747
0.8868,0.0789,0.1764
0.8885,0.0806,0.1788
0.8905,0.0821,0.1808
0.8932,0.0821,0.1837
0.8968,0.0816,0.1849
0.9005,0.0799,0.1847
0.903,0.077,0.184
0.9054,0.0735,0.1842
0.9078,0.0691,0.1849
0.9088,0.0635,0.1862
0.9093,0.0559,0.1879
0.91,0.0491,0.1891
0.9105,0.0425,0.1898
0.9108,0.0349,0.191
0.9096,0.0274,0.1918
0.9081,0.0195,0.1923
0.9083,0.0125,0.1945
0.9081,0.0068,0.1962
0.9074,0.0017,0.1969
0.9054,-0.0039,0.1986
0.9034,-0.0098,0.2003
0.903,-0.0161,0.2023
0.9027,-0.023,0.206
0.9005,-0.0298,0.2089
0.8993,-0.0364,0.2123
0.902,-0.0393,0.2169
0.9108,-0.0337,0.227
0.9186,-0.0296,0.2384
0.9186,-0.0357,0.2424
0.9161,-0.0476,0.2409
0.9149,-0.0596,0.2389
0.9144,-0.0713,0.2384
0.9144,-0.0818,0.2389
0.9164,-0.0909,0.2406
0.9181,-0.0992,0.2431
0.9193,-0.1063,0.246
0.9201,-0.1141,0.2489
0.922,-0.1217,0.2519
0.9232,-0.128,0.2543
0.9232,-0.1329,0.2573
0.923,-0.1368,0.2619
0.9218,-0.1397,0.2673
0.9198,-0.1424,0.2702
0.9164,-0.1449,0.2736
0.9125,-0.1449,0.2761
0.9098,-0.1434,0.2807
0.9081,-0.14,0.2868
0.9064,-0.1353,0.2932
0.9044,-0.1305,0.2995
0.9015,-0.1251,0.3061
0.8983,-0.1182,0.3117
0.8942,-0.1114,0.3169
0.8905,-0.1055,0.3235
0.8866,-0.0999,0.3286
0.8817,-0.0948,0.3325
0.8768,-0.0899,0.3362
0.8717,-0.086,0.3408
0.8666,-0.0811,0.3454
0.8626,-0.0762,0.3494
0.8585,-0.0723,0.353
0.8553,-0.0679,0.3564
0.8531,-0.0638,0.3601
0.8512,-0.0599,0.3628
0.8504,-0.0559,0.3655
0.8507,-0.053,0.3677
0.8514,-0.0496,0.3699
0.8541,-0.0469,0.3728
0.8582,-0.0445,0.374
0.8631,-0.0418,0.3743
0.868,-0.0391,0.3743
0.8734,-0.0366,0.3748
0.8797,-0.0342,0.3765
0.8871,-0.0303,0.3762
0.8927,-0.0264,0.3738
0.8976,-0.0235,0.3716
0.903,-0.02,0.3706
0.9069,-0.0169,0.3694
0.9108,-0.0149,0.3662
0.9154,-0.0125,0.3635
0.9193,-0.01,0.3604
0.9237,-0.0071,0.3552
0.9279,-0.0051,0.3494
0.9318,-0.0044,0.3437
0.9367,-0.0042,0.3386
0.9416,-0.0037,0.3335
0.9464,-0.0034,0.3293
0.9518,-0.0046,0.3252
0.9579,-0.0066,0.3213
0.964,-0.0083,0.3181
0.9706,-0.0095,0.3154
0.9772,-0.0117,0.3134
0.9853,-0.0154,0.312
0.9951,-0.02,0.3112
1.0053,-0.0247,0.3095
1.0156,-0.0296,0.3071
1.0261,-0.0347,0.3066
1.0359,-0.0403,0.3061
1.0442,-0.0462,0.3044
1.0522,-0.0518,0.3015
1.061,-0.0564,0.2985
1.0691,-0.0603,0.2959
1.0759,-0.0643,0.2934
1.0833,-0.0684,0.29
1.0894,-0.0704,0.2851
1.0977,-0.0723,0.2763
1.1023,-0.0735,0.2709
1.1055,-0.0743,0.2651
1.1082,-0.0748,0.2582
1.1123,-0.0738,0.2519
1.1167,-0.0711,0.2463
1.1209,-0.0677,0.2416
1.125,-0.0643,0.2377
1.1294,-0.0596,0.2348
1.1331,-0.0545,0.2326
1.1363,-0.0493,0.2309
1.1394,-0.0437,0.2289
1.1419,-0.0364,0.2284
1.1434,-0.0283,0.2274
1.1441,-0.021,0.2274
1.1436,-0.0127,0.2287
1.1419,-0.0054,0.2301
1.1394,0.002,0.2321
1.1358,0.0103,0.2367
1.1316,0.0173,0.2426
1.1255,0.023,0.2492
1.1172,0.0283,0.258
1.107,0.033,0.2665
1.0945,0.0364,0.2741
1.0803,0.0386,0.2827
1.0654,0.0401,0.2924
1.0503,0.0406,0.3032
1.0368,0.0388,0.3142
1.0241,0.0342,0.3249
1.0114,0.0283,0.3342
0.9982,0.021,0.3418
0.9868,0.0129,0.3489
0.9777,0.0046,0.3567
0.9716,-0.0042,0.3652
0.9687,-0.0122,0.374
0.9682,-0.0191,0.3809
0.9721,-0.0252,0.3845
0.9819,-0.032,0.3845
0.9963,-0.0396,0.3789
1.0126,-0.0474,0.3679
1.0322,-0.0562,0.3528
1.0547,-0.0669,0.3362
1.0784,-0.0782,0.3183
1.1033,-0.0909,0.2995
1.1292,-0.1031,0.2817
1.1553,-0.1148,0.266
1.1807,-0.1275,0.2524
1.2093,-0.1417,0.2394
1.243,-0.1554,0.2274
1.277,-0.1681,0.2194
1.3097,-0.1793,0.214
1.3395,-0.1886,0.2094
1.3684,-0.1942,0.2047
1.3952,-0.1994,0.2011
1.4209,-0.202,0.1989
1.446,-0.2006,0.1964
1.4702,-0.1969,0.1937
1.4908,-0.1928,0.1891
1.5064,-0.1871,0.1813
1.5196,-0.1803,0.1715
1.5308,-0.1686,0.1632
1.5377,-0.1534,0.1561
1.5379,-0.1351,0.1454
1.5335,-0.1182,0.1314
1.5211,-0.1087,0.1121
1.5013,-0.1036,0.0872
1.469,-0.1014,0.0577
1.4289,-0.097,0.0308
1.4013,-0.0862,0.0142
1.382,-0.0743,-0.0005
1.362,-0.0679,-0.0139
1.3356,-0.0647,-0.0264
1.3031,-0.0601,-0.0379
1.2648,-0.0537,-0.0464
1.2223,-0.0454,-0.052
1.1768,-0.0354,-0.0545
1.1299,-0.0271,-0.052
1.0833,-0.0203,-0.044
1.0381,-0.0139,-0.0327
0.9938,-0.0076,-0.0195
0.9506,-0.0037,-0.0044
0.9078,-0.0046,0.0107
0.867,-0.0071,0.0242
0.8289,-0.0112,0.0381
0.7928,-0.0166,0.0501
0.7608,-0.0235,0.0584
0.7317,-0.0342,0.0679
0.7056,-0.0489,0.0787
0.6828,-0.064,0.0889
0.6611,-0.0777,0.0953
0.6423,-0.0911,0.1007
0.6281,-0.106,0.1077
0.6196,-0.1224,0.1165
0.613,-0.1402,0.1256
0.6049,-0.1586,0.1319
0.5961,-0.1759,0.1353
0.588,-0.1913,0.1378
0.5817,-0.204,0.1363
0.5795,-0.2155,0.1319
0.5797,-0.2282,0.1263
0.5817,-0.2409,0.1212
0.5871,-0.2519,0.117
0.6012,-0.2614,0.117
0.6274,-0.2656,0.119
0.6662,-0.2639,0.1173
0.7129,-0.2548,0.1109
0.7608,-0.2382,0.1021
0.8077,-0.2169,0.0909
0.8521,-0.1935,0.0777
0.8934,-0.1688,0.0628
0.9315,-0.1439,0.0464
0.967,-0.1195,0.0305
0.9997,-0.0967,0.0156
1.031,-0.0757,0.0017
1.0583,-0.055,-0.0095
1.0835,-0.034,-0.0193
1.1074,-0.0144,-0.0276
1.1289,0.0039,-0.0354
1.147,0.0215,-0.0447
1.1627,0.0371,-0.0535
1.1754,0.0508,-0.0613
1.1805,0.0613,-0.0689
1.1776,0.0706,-0.0777
1.1773,0.0833,-0.0818
1.1778,0.0987,-0.0833
1.1766,0.1143,-0.0831
1.1746,0.1307,-0.0823
1.1683,0.1451,-0.0814
1.1617,0.1603,-0.0784
1.1502,0.1732,-0.0755
1.1324,0.1835,-0.0726
1.1184,0.1974,-0.0652
1.1052,0.2106,-0.0569
1.0869,0.2191,-0.0479
1.0654,0.2262,-0.0374
1.0427,0.2314,-0.0264
1.0183,0.2331,-0.0149
0.9933,0.2338,-0.0037
0.9665,0.2343,0.0081
0.9408,0.2331,0.0208
0.9164,0.2296,0.0342
0.8917,0.225,0.0493
0.8695,0.2194,0.0655
0.8499,0.2138,0.0816
0.8333,0.2079,0.0975
0.8179,0.2011,0.1116
0.8038,0.1928,0.1253
0.7911,0.1837,0.1371
0.7796,0.1735,0.1476
0.7686,0.1625,0.1559
0.7593,0.1505,0.1627
0.752,0.1378,0.1691
0.7461,0.1236,0.1742
0.7412,0.108,0.1781
0.738,0.0923,0.1805
0.7371,0.0779,0.183
0.7378,0.063,0.1857
0.7412,0.0474,0.1869
0.7473,0.0337,0.1864
0.7542,0.0203,0.1857
0.7615,0.0064,0.1847
0.7708,-0.0066,0.1835
0.7813,-0.0183,0.1827
0.7906,-0.0288,0.1803
0.7999,-0.0384,0.1761
0.8087,-0.0476,0.1725
0.8179,-0.0564,0.1683
0.827,-0.064,0.1649
0.8338,-0.0716,0.1622
0.8402,-0.0792,0.1588
0.8453,-0.086,0.1549
0.8499,-0.0919,0.151
0.8546,-0.098,0.1485
0.8587,-0.1041,0.1468
0.8636,-0.109,0.1446
0.8692,-0.1126,0.1429
0.8746,-0.1165,0.1427
0.8795,-0.12,0.1427
0.8844,-0.1224,0.1441
0.8885,-0.1253,0.1473
0.8925,-0.1287,0.1507
0.8954,-0.1307,0.1546
0.8986,-0.1319,0.1598
0.9032,-0.1334,0.1652
0.9066,-0.1339,0.1717
0.9093,-0.1346,0.1793
0.9118,-0.1346,0.1864
0.9132,-0.1336,0.1932
0.9142,-0.1324,0.1998
0.9152,-0.1309,0.2064
0.9164,-0.1302,0.2133
0.9179,-0.1285,0.2199
0.9179,-0.128,0.2255
0.9142,-0.1312,0.2289
0.9115,-0.1317,0.2333
0.9144,-0.1258,0.2394
0.9161,-0.1204,0.2453
0.9166,-0.1151,0.2499
0.9164,-0.1094,0.2546
0.9147,-0.1043,0.258
0.9083,-0.1033,0.259
0.9003,-0.1026,0.2573
0.9012,-0.0948,0.2565
0.9052,-0.0865,0.2575
0.9042,-0.085,0.2575
0.8973,-0.084,0.2548
0.8961,-0.0767,0.2543
0.8995,-0.0674,0.2565
0.8978,-0.0623,0.2575
0.8912,-0.0618,0.2548
0.8851,-0.0584,0.2533
0.8861,-0.052,0.2553
0.8876,-0.0476,0.256
0.8863,-0.0462,0.2555
0.8832,-0.0459,0.2555
0.8805,-0.0462,0.2548
0.8783,-0.0474,0.2551
0.8758,-0.0489,0.2555
0.8736,-0.0493,0.2565
0.8724,-0.0496,0.2575
0.8714,-0.0496,0.2585
0.8712,-0.0498,0.2597
0.8707,-0.0493,0.2617
0.8705,-0.0486,0.2634
0.87,-0.0484,0.2641
0.869,-0.0472,0.2643
0.8685,-0.0447,0.2658
0.8675,-0.042,0.269
0.8661,-0.0393,0.2717
0.8648,-0.0379,0.2726
0.8629,-0.0369,0.2744
0.8609,-0.0359,0.2766
0.86,-0.0352,0.279
0.8585,-0.0332,0.2812
0.858,-0.0318,0.2836
0.8585,-0.032,0.2858
0.859,-0.0327,0.2878
0.8604,-0.033,0.2883
0.8617,-0.0337,0.2888
0.8631,-0.034,0.2883
0.8656,-0.0352,0.2861
0.8692,-0.0374,0.2844
0.8741,-0.0386,0.2839
0.8788,-0.0396,0.2841
0.8839,-0.0415,0.2841
0.8898,-0.0435,0.2849
0.8978,-0.0452,0.2866
0.9071,-0.0459,0.2885
0.9154,-0.0467,0.2902
0.9245,-0.0476,0.2917
0.9345,-0.0484,0.2939
0.9452,-0.0484,0.2966
0.9555,-0.0479,0.2993
0.9653,-0.0474,0.3017
0.9755,-0.0469,0.3037
0.9868,-0.0469,0.3061
0.9987,-0.0462,0.3071
1.0083,-0.0445,0.3076
1.0166,-0.043,0.3078
1.0251,-0.0415,0.3064
1.0337,-0.0391,0.3034
1.0425,-0.0371,0.299
1.0505,-0.0342,0.2944
1.0578,-0.0313,0.2893
1.064,-0.0288,0.2836
1.0708,-0.0269,0.2775
1.0769,-0.0244,0.2719
1.082,-0.022,0.2668
1.0874,-0.0203,0.2612
1.0913,-0.0188,0.2558
1.0916,-0.0222,0.2504
1.0852,-0.0274,0.2433
1.083,-0.0257,0.2409
1.0842,-0.0283,0.2394
1.0891,-0.0293,0.2394
1.096,-0.0249,0.2416
1.1062,-0.0191,0.2475
1.1157,-0.0186,0.2538
1.1204,-0.0217,0.258
1.1197,-0.0252,0.2602
1.1153,-0.0296,0.2624
1.1084,-0.0335,0.2656
1.1008,-0.0376,0.2697
1.0923,-0.042,0.2741
1.0837,-0.0457,0.28
1.0767,-0.0486,0.2871
1.0708,-0.0506,0.2932
1.0652,-0.0523,0.2995
1.0603,-0.0537,0.3059
1.0576,-0.054,0.3125
1.0569,-0.0533,0.3205
1.0571,-0.0518,0.3281
1.0569,-0.0491,0.3345
1.0564,-0.0459,0.3396
1.0571,-0.0423,0.3447
1.06,-0.0386,0.3501
1.064,-0.0344,0.3557
1.0666,-0.0291,0.3633
1.0688,-0.0232,0.3713
1.0688,-0.0178,0.3794
1.0681,-0.0134,0.3884
1.0664,-0.0093,0.3982
1.0632,-0.0056,0.4087
1.0561,-0.0022,0.4183
1.0476,-0.0002,0.4278
1.0371,-0.0005,0.4366
1.0263,-0.0015,0.4456
1.0153,-0.0037,0.4547
1.0041,-0.0064,0.4627
0.9929,-0.0093,0.4691
0.9811,-0.0127,0.4754
0.9697,-0.0166,0.4818
0.9591,-0.0215,0.4869
0.9474,-0.0279,0.4906
0.9352,-0.0342,0.4933
0.9242,-0.0408,0.4955
0.9137,-0.0474,0.4986
0.9042,-0.054,0.5018
0.8961,-0.0621,0.5035
0.8881,-0.0687,0.504
0.8805,-0.074,0.5047
0.8741,-0.0799,0.5052
0.8673,-0.0848,0.5035
0.8612,-0.0884,0.5023
0.8575,-0.0904,0.5013
0.8536,-0.0906,0.5006
0.8495,-0.0897,0.502
0.8455,-0.0875,0.5045
0.8433,-0.0818,0.5077
0.8438,-0.074,0.5116
0.8465,-0.064,0.5152
0.8514,-0.0537,0.5182
0.8602,-0.0452,0.5201
0.871,-0.0386,0.5204
0.8844,-0.0371,0.5182
0.8983,-0.0381,0.5123
0.9122,-0.032,0.5084
0.9271,-0.0205,0.5135
0.9408,-0.0073,0.5257
0.9545,0.0051,0.5358
0.9692,0.0159,0.5372
0.9841,0.0249,0.5292
1.0004,0.0342,0.5148
1.0156,0.0428,0.4945
1.0307,0.0479,0.4683
1.0461,0.0506,0.4361
1.0625,0.0498,0.3977
1.0784,0.0467,0.3564
1.093,0.0423,0.3154
1.1062,0.0362,0.2739
1.1155,0.0215,0.2282
1.1221,0.0056,0.1813
1.1355,-0.002,0.1405
1.1541,-0.0086,0.1036
1.1746,-0.0176,0.0679
1.1929,-0.0286,0.0332
1.2103,-0.0406,0.0017
1.2276,-0.0552,-0.0264
1.2455,-0.0708,-0.0523
1.2587,-0.0877,-0.0774
1.2665,-0.1075,-0.1033
1.2799,-0.1241,-0.1285
1.2938,-0.1373,-0.1537
1.309,-0.1505,-0.1761
1.3244,-0.163,-0.1947
1.3388,-0.1739,-0.2111
1.352,-0.1808,-0.227
1.3635,-0.1857,-0.2402
1.3747,-0.1908,-0.2511
1.3855,-0.1959,-0.2599
1.3952,-0.2013,-0.2668
1.4001,-0.2079,-0.2714
1.4006,-0.2165,-0.2724
1.3989,-0.2253,-0.2702
1.3947,-0.2326,-0.266
1.3884,-0.238,-0.2599
1.3801,-0.2436,-0.2529
1.3561,-0.2548,-0.2419
1.3412,-0.2538,-0.2328
1.3241,-0.2504,-0.225
1.3024,-0.2465,-0.2189
