accx,accy,accz
0.695,-0.0739,0.2556
0.6984,-0.0675,0.2522
0.7053,-0.0626,0.2439
0.7146,-0.0518,0.2376
0.7219,-0.0435,0.2381
0.7282,-0.0377,0.2298
0.7341,-0.024,0.2322
0.7468,-0.0142,0.2322
0.76,-0.002,0.2234
0.7678,0.0019,0.2195
0.782,0.0146,0.2195
0.7942,0.0219,0.2151
0.805,0.0283,0.2092
0.8162,0.0405,0.2112
0.825,0.0419,0.2092
0.8362,0.0473,0.2033
0.8465,0.0547,0.2014
0.8553,0.0586,0.2024
0.8665,0.064,0.2004
0.8753,0.0713,0.2038
0.8866,0.0752,0.2028
0.9046,0.0781,0.2014
0.9188,0.0762,0.1989
0.9227,0.0801,0.1984
0.9344,0.0869,0.1945
0.9388,0.0864,0.1862
0.9491,0.0918,0.1843
0.9544,0.0986,0.176
0.9613,0.0991,0.1687
0.9643,0.0996,0.1662
0.9701,0.1021,0.1516
0.9755,0.1011,0.1452
0.9784,0.1079,0.1413
0.9794,0.1099,0.1384
0.9789,0.1084,0.1315
0.9843,0.1118,0.1257
0.9872,0.1069,0.1179
0.9828,0.1074,0.1188
0.9823,0.1109,0.1154
0.9814,0.104,0.113
0.9858,0.1011,0.1086
0.9809,0.1011,0.1096
0.975,0.0962,0.1115
0.9716,0.0947,0.1096
0.9701,0.0977,0.1115
0.9628,0.0942,0.111
0.9609,0.0938,0.1135
0.9505,0.0913,0.1145
0.9457,0.0845,0.1149
0.9427,0.0811,0.1135
0.9369,0.0767,0.1193
0.931,0.0728,0.1242
0.9276,0.0659,0.1267
0.9227,0.063,0.1262
0.9178,0.0591,0.132
0.9198,0.0562,0.1345
0.9247,0.0547,0.1398
0.9305,0.0512,0.1472
0.9398,0.0493,0.1535
0.951,0.04,0.1584
0.9584,0.039,0.1633
0.9721,0.0361,0.1638
0.9862,0.0351,0.1648
1.0053,0.0366,0.1711
1.0238,0.0292,0.1691
1.0527,0.0268,0.1716
1.0771,0.0288,0.1691
1.0942,0.0209,0.1721
1.1167,0.0156,0.1726
1.1382,0.0131,0.1745
1.1606,0.0053,0.176
1.1773,-0.0045,0.177
1.1959,-0.0098,0.1804
1.2183,-0.0181,0.1789
1.2354,-0.0235,0.1784
1.2506,-0.0377,0.177
1.2662,-0.0435,0.1843
1.2819,-0.0568,0.1926
1.2941,-0.0675,0.1901
1.3048,-0.0787,0.197
1.3107,-0.0856,0.2117
1.3214,-0.0973,0.2176
1.3263,-0.109,0.2293
1.3302,-0.1173,0.2459
1.3331,-0.1281,0.2615
1.3385,-0.1329,0.2727
1.3361,-0.1359,0.2845
1.3273,-0.1369,0.3045
1.3244,-0.1373,0.3167
1.3214,-0.1344,0.325
1.3185,-0.1286,0.3377
1.3195,-0.1173,0.35
1.3283,-0.1041,0.3602
1.3375,-0.0905,0.3695
1.3414,-0.0758,0.3719
1.3473,-0.0631,0.3749
1.3532,-0.0523,0.3709
1.359,-0.044,0.3656
1.36,-0.0386,0.3543
1.3639,-0.0303,0.3397
1.3703,-0.0186,0.329
1.3717,-0.0152,0.3103
1.3727,-0.0035,0.2864
1.3747,0.0102,0.263
1.3717,0.0273,0.2464
1.3644,0.0473,0.2234
1.3668,0.0669,0.1945
1.3707,0.0903,0.1613
1.3717,0.1069,0.1345
1.3781,0.124,0.0978
1.3825,0.1353,0.048
1.3889,0.1392,0.0118
1.3986,0.1367,-0.0312
1.405,0.1245,-0.0693
1.4123,0.1148,-0.1099
1.4177,0.1001,-0.1514
1.4187,0.0772,-0.1948
1.4216,0.0615,-0.2242
1.4182,0.0385,-0.2491
1.4108,0.019,-0.2672
1.4011,0.0024,-0.2799
1.3874,-0.0157,-0.2887
1.3693,-0.0255,-0.2965
1.3527,-0.0347,-0.3009
1.3287,-0.0372,-0.3072
1.3107,-0.0333,-0.3087
1.2819,-0.0352,-0.3082
1.2593,-0.0338,-0.3126
1.2369,-0.0259,-0.3175
1.2047,-0.0186,-0.3155
1.1754,-0.0069,-0.3126
1.1416,-0.001,-0.3116
1.1103,0.0121,-0.3072
1.084,0.0292,-0.3082
1.0478,0.0424,-0.3023
1.0102,0.0606,-0.297
0.9721,0.0776,-0.294
0.9305,0.0938,-0.2926
0.8885,0.1099,-0.2921
0.8421,0.1275,-0.2906
0.7976,0.1524,-0.2882
0.7576,0.1773,-0.2818
0.7204,0.2076,-0.2774
0.6872,0.233,-0.2725
0.6603,0.2608,-0.2628
0.6389,0.2873,-0.253
0.6173,0.3219,-0.2227
0.6105,0.3625,-0.2154
0.6095,0.3904,-0.2174
0.61,0.4114,-0.2129
0.6241,0.4382,-0.2071
0.6408,0.4597,-0.2061
0.6608,0.4748,-0.2002
0.6867,0.4959,-0.1968
0.715,0.5081,-0.1944
0.7498,0.5135,-0.1875
0.7903,0.5179,-0.1773
0.8181,0.5193,-0.1704
0.8538,0.5145,-0.1651
0.8851,0.5066,-0.1563
0.9095,0.4964,-0.146
0.9173,0.4656,-0.1377
0.8968,0.4324,-0.1333
0.8675,0.4065,-0.1211
0.8469,0.386,-0.1074
0.8269,0.3625,-0.0859
0.8172,0.3385,-0.0649
0.8157,0.3117,-0.0405
0.822,0.2877,-0.0087
0.8294,0.2584,0.0197
0.8421,0.2325,0.0499
0.8573,0.1964,0.0822
0.8705,0.1676,0.1135
0.8851,0.1445,0.1384
0.9027,0.1133,0.1604
0.9134,0.0913,0.1804
0.9276,0.0547,0.1999
0.9476,0.018,0.2136
0.9599,-0.0132,0.2268
0.976,-0.0411,0.2332
0.9911,-0.0675,0.2356
1.0009,-0.0934,0.2395
1.016,-0.1178,0.2405
1.0258,-0.1403,0.2371
1.0268,-0.1564,0.2298
1.0297,-0.1799,0.2244
1.0278,-0.2019,0.2136
1.0263,-0.2204,0.2043
1.0258,-0.2419,0.1921
1.0165,-0.26,0.1765
1.0048,-0.2766,0.1643
0.996,-0.2903,0.1506
0.9823,-0.2971,0.1364
0.9652,-0.2996,0.1125
0.9491,-0.2967,0.0944
0.9266,-0.2976,0.0753
0.9105,-0.2932,0.0553
0.8934,-0.2859,0.0382
0.8792,-0.2825,0.0338
0.8626,-0.2664,0.0231
0.849,-0.2497,0.0055
0.8495,-0.2302,-0.0038
0.8656,-0.2092,-0.0078
0.8895,-0.1906,-0.0078
0.9149,-0.1833,-0.0034
0.9291,-0.1648,-0.0068
0.9305,-0.1442,-0.0063
0.9364,-0.131,-0.0048
0.9398,-0.1159,-0.0063
0.9417,-0.0973,0.0031
0.9383,-0.0812,0.0079
0.9286,-0.0617,0.0157
0.9164,-0.0411,0.0314
0.9139,-0.0186,0.046
0.911,0.0034,0.0631
0.9056,0.0195,0.0831
0.9007,0.0429,0.1017
0.889,0.0576,0.1179
0.8846,0.0723,0.1335
0.8807,0.0918,0.1477
0.8753,0.106,0.1628
0.8626,0.1201,0.1696
0.8582,0.1353,0.1794
0.8568,0.1533,0.1892
0.8553,0.1602,0.1931
0.8474,0.1715,0.1999
0.8426,0.1807,0.2063
0.846,0.192,0.2063
0.843,0.2027,0.2019
0.845,0.2115,0.2053
0.8479,0.2198,0.197
0.8495,0.2232,0.1887
0.8519,0.2257,0.1779
0.8597,0.2364,0.1691
0.8617,0.2389,0.1608
0.8646,0.2389,0.1472
0.868,0.2349,0.1379
0.8817,0.233,0.1203
0.8836,0.2286,0.1159
0.8851,0.2257,0.1076
0.8905,0.2227,0.0978
0.8988,0.2179,0.0934
0.9002,0.2081,0.09
0.9032,0.2037,0.0885
0.9071,0.1978,0.0807
0.9066,0.1895,0.0802
0.9066,0.1807,0.0812
0.9076,0.1759,0.0797
0.9095,0.1651,0.0831
0.9124,0.1593,0.0856
0.912,0.1489,0.09
0.8978,0.1494,0.088
0.8905,0.147,0.0905
0.8963,0.1402,0.0953
0.9002,0.1358,0.1027
0.8963,0.1328,0.1115
0.9012,0.1289,0.1203
0.9027,0.1235,0.1237
0.9061,0.1167,0.1301
0.9071,0.1162,0.1369
0.9071,0.1162,0.1423
0.9085,0.1138,0.1481
0.9076,0.1148,0.1521
0.9051,0.1157,0.1589
0.9037,0.1123,0.1569
0.9027,0.1162,0.1648
0.9041,0.1172,0.1731
0.9007,0.1143,0.1789
0.8958,0.1177,0.1794
0.8914,0.1221,0.1818
0.888,0.1221,0.1833
0.8885,0.124,0.1892
0.8856,0.127,0.1892
0.8817,0.1323,0.1911
0.8778,0.1323,0.1931
0.8783,0.1348,0.1965
0.8778,0.1367,0.1955
0.8744,0.1338,0.1945
0.8709,0.1358,0.1955
0.8778,0.1397,0.1999
0.8739,0.145,0.2019
0.8768,0.1445,0.2019
0.8807,0.1499,0.2019
0.8827,0.1582,0.2067
0.8827,0.1632,0.2151
0.8861,0.169,0.2166
0.8871,0.171,0.2224
0.8944,0.1763,0.2317
0.8929,0.1803,0.2376
0.89,0.1856,0.2425
0.8949,0.1978,0.2498
0.8934,0.2037,0.2586
0.9002,0.2091,0.2669
0.9056,0.2179,0.2678
0.9066,0.2262,0.2683
0.9056,0.2262,0.2747
0.909,0.234,0.2766
0.9129,0.2374,0.2747
0.9144,0.2423,0.2708
0.9159,0.2418,0.262
0.9149,0.2472,0.2566
0.9212,0.2486,0.2527
0.9344,0.252,0.2459
0.9476,0.252,0.2361
0.9667,0.2555,0.2312
0.9858,0.2599,0.2224
1.0043,0.2599,0.2132
1.0321,0.2647,0.2087
1.06,0.2647,0.1989
1.0884,0.2692,0.1877
1.1177,0.2746,0.1814
1.1479,0.2824,0.1677
1.189,0.2882,0.1564
1.2217,0.2912,0.1516
1.2535,0.3024,0.1452
1.2882,0.3058,0.1408
1.3161,0.3073,0.1369
1.3507,0.3102,0.135
1.3859,0.3117,0.1355
1.4192,0.3141,0.133
1.4445,0.3156,0.1276
1.469,0.3185,0.1276
1.4964,0.3224,0.1237
1.5218,0.321,0.1198
1.5442,0.318,0.1125
1.5569,0.3175,0.1057
1.5638,0.3131,0.1012
1.5745,0.3068,0.091
1.5784,0.3039,0.0866
1.576,0.2951,0.0851
1.5765,0.2897,0.0768
1.5745,0.2819,0.067
1.5784,0.2809,0.0617
1.576,0.2765,0.0568
1.5735,0.2692,0.0475
1.5818,0.2633,0.0363
1.5857,0.2658,0.028
1.5941,0.2677,0.0114
1.6058,0.2711,-0.0087
1.6244,0.2672,-0.04
1.641,0.252,-0.081
1.5037,0.1661,-0.1988
1.4616,0.0908,-0.3092
1.5799,0.1333,-0.2613
1.6444,0.1597,-0.2457
1.6796,0.168,-0.2462
1.7177,0.1587,-0.2452
1.7446,0.1485,-0.254
1.7573,0.1338,-0.2574
1.7597,0.1192,-0.275
1.7568,0.1045,-0.3033
1.7455,0.0991,-0.3219
1.7353,0.0933,-0.3332
1.7187,0.0874,-0.3332
1.6932,0.0835,-0.3302
1.6659,0.0791,-0.3185
1.6273,0.0693,-0.3121
1.575,0.0454,-0.3155
1.5232,0.0185,-0.3165
1.4626,-0.0049,-0.3111
1.4074,-0.022,-0.2965
1.3449,-0.0382,-0.2979
1.2814,-0.0563,-0.2979
1.2115,-0.0734,-0.3028
1.1426,-0.088,-0.3102
1.0752,-0.1085,-0.3165
1.0058,-0.1232,-0.3283
0.9471,-0.131,-0.3424
0.8861,-0.1383,-0.3488
0.8333,-0.1412,-0.3547
0.7908,-0.1422,-0.3522
0.7517,-0.1437,-0.3468
0.7175,-0.1417,-0.3332
0.695,-0.1359,-0.32
0.7287,-0.0709,-0.2716
0.759,-0.0279,-0.2218
0.7464,-0.0523,-0.1983
0.7351,-0.0695,-0.1704
0.7224,-0.0885,-0.1445
0.7004,-0.1046,-0.1123
0.6784,-0.1178,-0.082
0.6584,-0.1344,-0.0551
0.6305,-0.1398,-0.02
0.6022,-0.1486,0.0162
0.5773,-0.1559,0.0431
0.5524,-0.1579,0.0724
0.524,-0.1628,0.1022
0.5025,-0.1608,0.1223
0.4854,-0.1564,0.1452
0.4747,-0.1544,0.1638
0.4722,-0.151,0.1794
0.4722,-0.1408,0.1931
0.4976,-0.1237,0.2107
0.5387,-0.0743,0.2312
0.5675,-0.0328,0.2434
0.5787,-0.0079,0.2215
0.5865,0.0117,0.1892
0.6012,0.0434,0.1638
0.6198,0.0649,0.1267
0.6339,0.0796,0.0919
0.6486,0.0967,0.0455
0.6638,0.1123,0.0074
0.6779,0.124,-0.0297
0.696,0.1397,-0.0683
0.7204,0.1577,-0.1044
0.739,0.168,-0.1441
0.7649,0.1803,-0.1792
0.7986,0.19,-0.2154
0.8255,0.2061,-0.2447
0.8582,0.2169,-0.2662
0.8924,0.2345,-0.2872
0.93,0.2442,-0.3048
0.9696,0.2525,-0.3249
1.0019,0.2569,-0.3395
1.039,0.2687,-0.3537
1.0766,0.2809,-0.3586
1.1045,0.2858,-0.3659
1.1362,0.2882,-0.3649
1.1641,0.2917,-0.3673
1.1944,0.2917,-0.3659
1.2173,0.2975,-0.3576
1.23,0.2926,-0.3542
1.2408,0.2853,-0.3507
1.2515,0.2877,-0.3405
1.2589,0.2824,-0.3307
1.2554,0.2741,-0.3214
1.2515,0.2672,-0.3092
1.2481,0.2594,-0.2945
1.2388,0.2486,-0.2818
1.2271,0.2428,-0.2638
1.1998,0.232,-0.2442
1.1773,0.213,-0.2281
1.1499,0.1998,-0.211
1.1269,0.1876,-0.1826
1.1045,0.1734,-0.1607
1.081,0.1607,-0.1338
1.0585,0.1465,-0.1099
1.0409,0.1362,-0.0874
1.019,0.1255,-0.0654
0.9985,0.1133,-0.0497
0.9735,0.0986,-0.0268
0.9535,0.0894,-0.0024
0.9359,0.0801,0.0162
0.9168,0.0703,0.0338
0.9012,0.0635,0.0509
0.8831,0.0542,0.0695
0.8621,0.0478,0.0866
0.8479,0.0405,0.1071
0.8308,0.0371,0.1203
0.8206,0.0317,0.132
0.802,0.0234,0.1428
0.7859,0.0141,0.156
0.7747,0.0112,0.1672
0.7605,0.0078,0.1809
0.7449,0.0073,0.196
0.7351,0.0019,0.1994
0.7253,0.0004,0.2082
0.7131,-0.0045,0.2161
0.7106,-0.0035,0.2171
0.7067,-0.0089,0.221
0.7043,-0.0152,0.2249
0.7019,-0.0191,0.2278
0.6979,-0.0215,0.2312
0.6984,-0.0264,0.2254
0.7053,-0.025,0.2234
0.7121,-0.0274,0.2263
0.718,-0.0294,0.2229
0.7214,-0.0323,0.2092
0.7268,-0.0323,0.1975
0.7355,-0.0357,0.1887
0.7331,-0.0342,0.1721
0.7419,-0.0362,0.1579
0.7507,-0.0284,0.1462
0.759,-0.023,0.1291
0.7703,-0.0196,0.113
0.7815,-0.0142,0.1022
0.7903,-0.0054,0.0851
0.8006,0.0024,0.0695
0.8108,0.0034,0.0626
0.8176,0.0107,0.049
0.8245,0.0175,0.0407
0.8357,0.0234,0.0304
0.846,0.0292,0.0206
0.8504,0.0346,0.0206
0.8621,0.041,0.0167
0.8714,0.0434,0.0133
0.8827,0.0527,0.0118
0.888,0.0542,0.0128
0.8973,0.0571,0.0162
0.9061,0.0615,0.0187
0.9198,0.0635,0.0206
0.931,0.0659,0.0265
0.9408,0.0664,0.0324
0.954,0.0689,0.0402
0.9672,0.0693,0.0475
0.9804,0.0684,0.0534
0.9911,0.063,0.0607
1.0048,0.0615,0.0651
1.0116,0.0606,0.0787
1.018,0.0586,0.0861
1.0273,0.0576,0.091
1.0297,0.0566,0.0997
1.0351,0.0571,0.1057
1.0429,0.0576,0.1154
1.0448,0.0502,0.1232
1.0463,0.0522,0.134
1.0517,0.0581,0.1364
1.0517,0.0532,0.1369
1.0531,0.0463,0.1521
1.0566,0.0502,0.1516
1.0507,0.0434,0.1545
1.0536,0.0419,0.1662
1.0561,0.041,0.1716
1.0536,0.0405,0.1779
1.0541,0.0327,0.1799
1.0473,0.0322,0.1872
1.0409,0.0283,0.1926
1.0361,0.0273,0.1965
1.0229,0.0229,0.2033
1.016,0.0151,0.2092
1.0102,0.0141,0.218
1.0024,0.0087,0.2249
0.9911,0.0063,0.2307
0.9823,0.0004,0.2356
0.9755,-0.0045,0.2395
0.9667,-0.0084,0.242
0.9618,-0.0152,0.2454
0.9535,-0.0157,0.2454
0.951,-0.0201,0.2517
0.951,-0.0259,0.2508
0.955,-0.0274,0.2434
0.9618,-0.0279,0.2469
0.9638,-0.0318,0.24
0.9765,-0.0313,0.2337
0.9897,-0.0284,0.2273
1.0004,-0.0255,0.2161
1.0146,-0.0259,0.2048
1.0317,-0.0264,0.2009
1.0522,-0.025,0.195
1.0737,-0.024,0.1877
1.0913,-0.0269,0.1799
1.1089,-0.0235,0.1784
1.125,-0.023,0.1731
1.145,-0.0255,0.1677
1.1602,-0.023,0.1755
1.171,-0.0191,0.1779
1.1837,-0.0196,0.176
1.1988,-0.0186,0.1843
1.209,-0.0176,0.1945
1.2169,-0.0167,0.196
1.2227,-0.0167,0.2043
1.2344,-0.0162,0.2112
1.2398,-0.0201,0.221
1.2359,-0.0137,0.2268
1.2437,-0.0157,0.2273
1.2462,-0.0196,0.2351
1.2437,-0.0147,0.239
1.2393,-0.0162,0.2415
1.2388,-0.0118,0.239
1.2379,-0.0108,0.2464
1.2393,-0.0045,0.2449
1.2379,0.0029,0.241
1.2364,0.0117,0.2405
1.2393,0.0204,0.2346
1.2471,0.0302,0.2259
1.255,0.0317,0.2205
1.2628,0.0371,0.2171
1.2741,0.0375,0.2122
1.2799,0.038,0.2028
1.2916,0.0419,0.1897
1.3082,0.0419,0.1828
1.3214,0.0439,0.1706
1.3351,0.0497,0.1457
1.3488,0.0586,0.1291
1.3673,0.0684,0.1022
1.3835,0.0762,0.0734
1.3947,0.0811,0.0416
1.4108,0.0874,0.0094
1.4152,0.0982,-0.0297
1.4084,0.0982,-0.0737
1.3073,0.0737,-0.1568
1.2603,0.0468,-0.2491
1.3214,0.0527,-0.2662
1.3444,0.0601,-0.2823
1.3551,0.0615,-0.3116
1.3595,0.062,-0.3429
1.3537,0.0552,-0.3864
1.3483,0.0371,-0.4289
1.34,0.0283,-0.4665
1.3327,0.019,-0.5032
1.3195,0.0131,-0.5271
1.2877,0.0043,-0.5491
1.2418,-0.0084,-0.5638
1.2051,-0.0118,-0.5662
1.166,-0.0069,-0.555
1.1352,0.0029,-0.5394
1.1206,0.0131,-0.5168
1.1094,0.0195,-0.4895
1.102,0.0234,-0.4558
1.0928,0.0356,-0.4289
1.0825,0.0434,-0.4045
1.0649,0.0522,-0.38
1.0468,0.0606,-0.361
1.0224,0.0747,-0.3459
0.9936,0.0835,-0.3297
0.9638,0.0977,-0.3175
0.9339,0.1221,-0.3048
0.9061,0.145,-0.2906
0.8846,0.171,-0.275
0.8641,0.2013,-0.2525
0.8499,0.231,-0.2218
0.843,0.2647,-0.2144
0.8465,0.2887,-0.2056
0.8465,0.3078,-0.1968
0.8504,0.3234,-0.1807
0.8631,0.339,-0.1724
0.8768,0.3517,-0.1572
0.8895,0.3634,-0.146
0.9095,0.3703,-0.1299
0.9237,0.3835,-0.1118
0.9383,0.3879,-0.0952
0.9544,0.3938,-0.0805
0.9613,0.3972,-0.0659
0.974,0.4016,-0.0527
0.9784,0.4016,-0.0439
0.9779,0.3952,-0.0278
0.9599,0.3698,-0.0195
0.9203,0.3424,-0.0165
0.8861,0.3268,-0.0102
0.8573,0.3073,-0.0068
0.8318,0.2921,-0.0043
0.8147,0.2711,0.0074
0.8162,0.2506,0.0197
0.822,0.2325,0.0367
0.8445,0.2066,0.0573
0.8582,0.1778,0.0695
0.888,0.1533,0.0866
0.9154,0.1318,0.1096
0.9398,0.1089,0.1169
0.9633,0.0835,0.1237
0.9897,0.062,0.134
1.0048,0.0424,0.1413
1.0331,0.0161,0.1413
1.0575,-0.0152,0.1477
1.081,-0.0518,0.1477
1.0893,-0.0763,0.1462
1.0933,-0.0924,0.1394
1.0884,-0.1056,0.1364
1.083,-0.1217,0.132
1.0776,-0.1373,0.1242
1.0801,-0.1447,0.1188
1.0757,-0.1608,0.1159
1.0747,-0.1809,0.1125
1.0727,-0.195,0.1066
1.0649,-0.2053,0.1041
1.06,-0.2126,0.0988
1.0502,-0.2258,0.0856
1.0317,-0.237,0.0763
1.0136,-0.2453,0.0675
0.9926,-0.2536,0.0602
0.9677,-0.2605,0.0548
0.9442,-0.2595,0.048
0.9217,-0.259,0.047
0.8939,-0.2585,0.0407
0.8768,-0.257,0.0367
0.8563,-0.2473,0.0382
0.8406,-0.239,0.0387
0.8289,-0.2204,0.045
0.8235,-0.1989,0.0411
0.8279,-0.1799,0.0402
0.822,-0.1618,0.0411
0.8167,-0.1447,0.0392
0.8147,-0.1305,0.0402
0.8103,-0.1163,0.0387
0.8074,-0.0963,0.0382
0.805,-0.0783,0.0363
0.7986,-0.0621,0.0333
0.7962,-0.0401,0.0367
0.7859,-0.0162,0.0411
0.78,0.0024,0.048
0.7757,0.0209,0.0441
0.7674,0.0395,0.0465
0.761,0.0635,0.0529
0.7561,0.0825,0.0631
0.7498,0.1025,0.0719
0.7429,0.1148,0.0797
0.7355,0.1304,0.089
0.7268,0.1504,0.0973
0.7209,0.1651,0.1149
0.7189,0.1749,0.1228
0.7126,0.1842,0.1394
0.7126,0.19,0.1555
0.7136,0.1998,0.1687
0.7199,0.2096,0.1794
0.7253,0.2154,0.1911
0.737,0.2227,0.1984
0.7522,0.2281,0.2092
0.7664,0.2306,0.2156
0.784,0.2369,0.219
0.7937,0.2384,0.2176
0.8025,0.2393,0.2215
0.8113,0.2393,0.2239
0.8225,0.2418,0.2146
0.8362,0.2432,0.2087
0.8386,0.2384,0.2019
0.845,0.2315,0.1994
0.8524,0.2306,0.1921
0.8607,0.232,0.1843
0.867,0.2266,0.177
0.8739,0.2227,0.1677
0.8812,0.2193,0.1608
0.8856,0.2183,0.1555
0.8914,0.2144,0.1447
0.8934,0.2115,0.1447
0.9017,0.2076,0.1403
0.9061,0.2047,0.132
0.9071,0.2027,0.1252
0.9139,0.2042,0.1169
0.9159,0.2027,0.114
0.9159,0.2003,0.1115
0.9242,0.1993,0.1076
0.9325,0.2003,0.1091
0.9364,0.2047,0.1105
0.9491,0.2066,0.1125
0.9594,0.2056,0.1115
0.9692,0.2071,0.111
0.9794,0.2071,0.1154
0.9858,0.2032,0.1145
0.998,0.2056,0.1135
1.0121,0.2047,0.1174
1.0219,0.2032,0.113
1.0297,0.2047,0.112
1.0395,0.2032,0.113
1.0463,0.1998,0.1091
1.0502,0.2037,0.1066
1.0615,0.1983,0.1022
1.0659,0.1959,0.0963
1.0693,0.1905,0.0929
1.0742,0.1925,0.09
1.0791,0.191,0.0841
1.0766,0.1886,0.0802
1.0762,0.1842,0.0783
1.0708,0.1881,0.0743
1.0615,0.1876,0.0704
1.0556,0.1861,0.0685
1.0488,0.19,0.0768
1.0478,0.1944,0.0787
1.0361,0.2003,0.0753
1.0321,0.2066,0.0743
1.0229,0.21,0.0773
1.0107,0.2198,0.0817
0.9989,0.2276,0.0866
0.9867,0.2418,0.0924
0.9843,0.2511,0.0968
0.9775,0.2599,0.1071
0.9701,0.2741,0.1154
0.9638,0.2809,0.1232
0.9613,0.2912,0.1389
0.9574,0.3029,0.1477
0.9476,0.3127,0.1594
0.9413,0.321,0.1765
0.9422,0.3302,0.1877
0.9378,0.339,0.2004
0.9393,0.3424,0.2176
0.951,0.3507,0.2322
0.9648,0.3547,0.2444
0.9828,0.3581,0.2561
0.9999,0.362,0.2586
1.017,0.36,0.2708
1.0405,0.3571,0.2776
1.0659,0.3527,0.2781
1.0908,0.3493,0.2781
1.1147,0.3463,0.2762
1.1367,0.3351,0.2693
1.1548,0.3283,0.2605
1.1719,0.3224,0.2498
1.192,0.3136,0.2351
1.2071,0.299,0.2219
1.2247,0.2892,0.2092
1.2423,0.2799,0.1945
1.2584,0.2668,0.1789
1.2706,0.2555,0.1643
1.2838,0.2457,0.1496
1.2985,0.2315,0.1379
1.3092,0.2208,0.1286
1.3185,0.21,0.1213
1.3273,0.1954,0.1154
1.3278,0.1817,0.113
1.2965,0.1514,0.0993
1.2423,0.1021,0.0748
1.2559,0.0752,0.07
1.2642,0.0938,0.1041
1.2828,0.1104,0.1633
1.3063,0.1123,0.2043
1.3224,0.1099,0.2361
1.3341,0.1006,0.2664
1.3405,0.0899,0.2864
1.3395,0.0728,0.2981
1.3419,0.0596,0.305
1.3351,0.0458,0.3045
1.3283,0.0307,0.3045
1.3278,0.0151,0.2996
1.3317,0.0029,0.2869
1.3497,-0.0059,0.2752
1.3771,-0.0001,0.2644
1.4128,0.0048,0.2405
1.4465,0.0068,0.2097
1.4743,0.0058,0.1716
1.5022,0.0068,0.1247
1.5179,0.0131,0.0763
1.5384,0.0102,0.0216
1.5481,0.0097,-0.0283
1.553,0.0165,-0.083
1.5476,0.0209,-0.1455
1.5452,0.0219,-0.2027
1.5389,0.0273,-0.2599
1.5257,0.0302,-0.3116
1.5076,0.0312,-0.3547
1.4871,0.0288,-0.3981
1.4597,0.0268,-0.4328
1.4304,0.0283,-0.4577
1.4035,0.0263,-0.4768
1.3727,0.02,-0.491
1.3312,0.0161,-0.4963
1.2916,0.0097,-0.4973
1.253,0.0009,-0.5032
1.213,0.0048,-0.5022
1.1695,-0.003,-0.5032
1.1348,-0.0118,-0.5056
1.0918,-0.0201,-0.5056
1.0566,-0.0318,-0.5027
1.0238,-0.0401,-0.5046
0.9887,-0.0479,-0.5007
0.951,-0.0528,-0.4949
0.9144,-0.0568,-0.4817
0.8797,-0.0592,-0.4641
0.8504,-0.0587,-0.4455
0.8206,-0.0587,-0.4328
0.7932,-0.0626,-0.4049
0.7674,-0.0675,-0.3766
0.737,-0.0734,-0.3473
0.7155,-0.0714,-0.3155
0.696,-0.0714,-0.2779
0.6818,-0.0719,-0.2398
0.674,-0.0753,-0.2017
0.6657,-0.0753,-0.1572
0.6584,-0.07,-0.1133
0.6535,-0.0714,-0.0664
0.653,-0.0621,-0.0297
0.6535,-0.0577,0.0099
0.6599,-0.0494,0.0494
0.6647,-0.0377,0.0914
0.6701,-0.0259,0.1281
0.6745,-0.0152,0.1608
0.6843,-0.0049,0.1936
0.6921,0.0131,0.2224
0.6999,0.0239,0.2415
0.7121,0.0297,0.2635
0.7263,0.0463,0.284
0.7297,0.0557,0.2893
0.7414,0.064,0.3006
0.7532,0.0757,0.3055
0.7669,0.083,0.2971
0.7771,0.0972,0.2932
0.781,0.1045,0.2801
0.7908,0.1133,0.26
0.7996,0.1221,0.2356
0.805,0.1333,0.2127
0.8118,0.1465,0.1921
0.8157,0.1587,0.1618
0.824,0.172,0.1286
0.8299,0.1837,0.0949
0.8416,0.2003,0.0573
0.8524,0.211,0.0245
0.8729,0.2193,-0.0029
0.8973,0.2335,-0.0317
0.9276,0.2423,-0.062
0.9565,0.2525,-0.0844
0.9858,0.2633,-0.1133
1.0151,0.2682,-0.1348
1.0424,0.2736,-0.1563
1.061,0.2804,-0.1787
1.082,0.2809,-0.2041
1.102,0.2877,-0.2213
1.124,0.2843,-0.2296
1.1401,0.2799,-0.2403
1.1611,0.2751,-0.2442
1.1758,0.2687,-0.2472
1.1851,0.2618,-0.2525
1.1915,0.254,-0.2476
1.1924,0.2481,-0.2447
1.1871,0.2398,-0.2384
1.1768,0.2257,-0.2247
1.1489,0.2115,-0.2208
1.1221,0.2017,-0.2041
1.0918,0.193,-0.1856
1.06,0.1798,-0.1675
1.0302,0.1661,-0.1431
1.0019,0.1524,-0.1172
0.9775,0.1445,-0.0942
0.953,0.1309,-0.0707
0.9286,0.1201,-0.0488
0.9095,0.1084,-0.0263
0.8944,0.0972,-0.0009
0.8778,0.0864,0.0153
0.8641,0.0737,0.0353
0.844,0.0645,0.0577
0.8264,0.0522,0.0797
0.8069,0.0405,0.1002
0.7976,0.0263,0.114
0.7854,0.0175,0.1306
0.7766,0.0097,0.1525
0.7693,-0.0059,0.1672
0.7649,-0.0215,0.1774
0.7634,-0.0298,0.1965
0.7581,-0.0396,0.2097
0.7561,-0.046,0.218
0.7517,-0.0534,0.2298
0.7498,-0.0577,0.2322
0.7483,-0.0612,0.2356
0.7439,-0.066,0.2366
0.7522,-0.0675,0.2381
0.7537,-0.0714,0.239
0.7459,-0.0719,0.2395
0.7522,-0.0743,0.2342
0.761,-0.0768,0.2263
0.7698,-0.0685,0.2263
0.7805,-0.0631,0.2219
0.7859,-0.0685,0.2127
0.8001,-0.0656,0.1989
0.8103,-0.0621,0.1877
0.8211,-0.0577,0.1735
0.8338,-0.0518,0.1564
0.844,-0.0469,0.1457
0.8582,-0.0416,0.1379
0.8719,-0.0352,0.1291
0.8846,-0.0338,0.1159
0.8983,-0.0289,0.111
0.9164,-0.0225,0.1066
0.9251,-0.0206,0.0993
0.9354,-0.0142,0.0963
0.9515,-0.0128,0.0944
0.9618,-0.0103,0.087
0.9687,-0.0064,0.0875
0.9814,-0.0064,0.089
0.9877,-0.004,0.0905
0.9936,-0.003,0.09
1.0038,-0.0005,0.0968
1.0072,-0.0005,0.1046
1.0155,-0.002,0.1086
1.019,-0.002,0.112
1.0199,-0.0054,0.1198
1.0224,-0.0093,0.1355
1.0292,-0.0089,0.1418
1.0268,-0.0162,0.1477
1.0238,-0.0196,0.156
1.0258,-0.0206,0.1633
1.0214,-0.0211,0.1726
1.0195,-0.0279,0.1828
1.0151,-0.0308,0.1916
1.0126,-0.0347,0.2009
1.0121,-0.0386,0.2072
1.0077,-0.0445,0.2156
1.0024,-0.045,0.2229
0.9985,-0.0513,0.2288
0.997,-0.0528,0.2327
0.9877,-0.0563,0.2395
0.9867,-0.0577,0.2434
0.9823,-0.0582,0.2439
0.9789,-0.0617,0.2493
0.9735,-0.0636,0.2512
0.9687,-0.0646,0.2586
0.9623,-0.0656,0.2625
0.9628,-0.0646,0.2674
0.956,-0.0636,0.2678
0.9461,-0.0646,0.2683
0.9437,-0.0646,0.2727
0.9432,-0.0636,0.2683
0.932,-0.0646,0.2635
0.9349,-0.0641,0.2674
0.931,-0.0631,0.262
0.9251,-0.0592,0.2552
0.9291,-0.0621,0.2517
0.9276,-0.0597,0.2454
0.9261,-0.0587,0.2395
0.9266,-0.0499,0.2337
0.9334,-0.0499,0.2263
0.9422,-0.0465,0.2244
0.95,-0.0406,0.2161
0.9618,-0.0347,0.2087
0.9789,-0.0225,0.2004
0.995,-0.0196,0.1916
1.0097,-0.0128,0.1882
1.0307,-0.0035,0.1765
1.0478,0.0024,0.1711
1.0683,0.0043,0.1657
1.0869,0.0117,0.1599
1.104,0.017,0.1564
1.1157,0.0204,0.1535
1.1211,0.0263,0.1511
1.1328,0.0302,0.1496
1.1426,0.0371,0.1516
1.1475,0.0414,0.1516
1.1606,0.0419,0.1555
1.1636,0.0454,0.1555
1.1714,0.0488,0.1594
1.1807,0.0488,0.1618
1.1895,0.0532,0.1667
1.1954,0.0502,0.1711
1.1978,0.0532,0.1779
1.2042,0.0517,0.1892
1.2105,0.0473,0.1911
1.213,0.0468,0.2014
1.2178,0.0429,0.2082
1.2169,0.0375,0.2122
1.2159,0.0331,0.2219
1.2047,0.0292,0.2288
1.2047,0.0253,0.2342
1.2017,0.0263,0.2385
1.2007,0.0317,0.2512
1.1929,0.0351,0.26
1.188,0.0385,0.2669
1.1861,0.0439,0.2747
1.1861,0.0463,0.2835
1.1895,0.0483,0.2864
1.188,0.0458,0.2888
1.1924,0.0454,0.2869
1.2007,0.039,0.2859
1.2061,0.0385,0.2762
1.2095,0.0327,0.2649
1.2159,0.0297,0.2561
1.2164,0.0292,0.2415
1.2266,0.0307,0.2166
1.2432,0.0341,0.1916
1.2613,0.0361,0.1638
1.2725,0.039,0.132
1.2863,0.0454,0.0919
1.3029,0.0497,0.0524
1.3126,0.0473,0.0143
1.32,0.0463,-0.0224
1.3292,0.0322,-0.0615
1.3307,0.017,-0.1025
1.3268,0.0038,-0.146
1.3239,-0.0147,-0.1821
1.318,-0.0357,-0.2193
1.3019,-0.0587,-0.2584
1.2863,-0.0739,-0.2887
1.2711,-0.0866,-0.315
1.253,-0.0973,-0.3283
1.2315,-0.108,-0.3385
1.2066,-0.1159,-0.3444
1.1832,-0.1115,-0.3463
1.1587,-0.1041,-0.3468
1.1367,-0.1041,-0.3376
1.1226,-0.0924,-0.3307
1.104,-0.0836,-0.3254
1.0918,-0.0778,-0.3145
1.0727,-0.068,-0.3018
1.0649,-0.0558,-0.2975
1.0478,-0.0455,-0.2921
1.037,-0.0289,-0.2862
1.0287,-0.0176,-0.2789
1.0224,-0.0049,-0.2721
1.0107,0.0121,-0.2701
1.0019,0.0331,-0.2638
0.9872,0.0517,-0.2608
0.9755,0.0747,-0.2535
0.9633,0.0947,-0.2428
0.9383,0.1177,-0.2276
0.9144,0.1402,-0.2169
0.8993,0.1685,-0.21
0.8831,0.2061,-0.187
0.8778,0.2481,-0.1636
0.8714,0.2765,-0.1602
0.8714,0.2995,-0.1436
0.8802,0.3273,-0.1333
0.891,0.3488,-0.1216
0.8914,0.3738,-0.1157
0.9066,0.3943,-0.102
0.9222,0.4158,-0.0991
0.9349,0.4343,-0.0869
0.9589,0.4529,-0.08
0.9735,0.4685,-0.0761
0.9823,0.4793,-0.0673
1.0077,0.4886,-0.0654
1.0209,0.4935,-0.0664
1.0336,0.491,-0.0712
1.0434,0.4935,-0.0776
1.0546,0.4793,-0.082
1.0575,0.4524,-0.0947
1.0414,0.425,-0.0981
1.0248,0.3952,-0.1123
1.0038,0.3659,-0.1216
0.9945,0.3322,-0.1231
0.9926,0.3034,-0.1152
0.9911,0.2711,-0.0996
0.9989,0.2364,-0.0874
1.0116,0.1998,-0.0707
1.0175,0.1593,-0.0517
1.0258,0.1294,-0.038
1.0307,0.1001,-0.0185
1.0346,0.064,-0.0043
1.0429,0.0278,0.0055
1.0473,-0.0035,0.0197
1.0527,-0.0362,0.0421
1.0551,-0.0612,0.0587
1.062,-0.0836,0.0665
1.0688,-0.1139,0.0841
1.0674,-0.1349,0.1032
1.0723,-0.1515,0.1149
1.0801,-0.1726,0.1252
1.082,-0.1901,0.1394
1.0791,-0.2111,0.1467
1.0771,-0.2268,0.1491
1.0723,-0.2429,0.1521
1.0703,-0.2541,0.1545
1.061,-0.2629,0.154
1.0458,-0.2742,0.1525
1.0331,-0.2796,0.1545
1.017,-0.2805,0.1481
0.9921,-0.2859,0.1486
0.9692,-0.2888,0.1467
0.9471,-0.2801,0.1384
0.9212,-0.2752,0.1311
0.9061,-0.2644,0.1237
0.8924,-0.2502,0.1159
0.8807,-0.2395,0.1057
0.87,-0.2219,0.0973
0.8612,-0.2063,0.0934
0.8529,-0.1833,0.0939
0.8401,-0.1687,0.0812
0.8318,-0.1569,0.07
0.823,-0.1442,0.0587
0.8054,-0.1271,0.0524
0.7952,-0.1115,0.0475
0.7879,-0.0919,0.0416
0.7761,-0.0729,0.0441
0.7742,-0.0573,0.045
0.7605,-0.0372,0.0504
0.7493,-0.0113,0.0543
0.7414,0.0102,0.0597
0.7395,0.0356,0.0709
0.7331,0.0581,0.0758
0.7307,0.0801,0.0831
0.7331,0.1045,0.0963
0.7365,0.1289,0.1086
0.738,0.1445,0.1169
0.7341,0.1622,0.1247
0.7316,0.1856,0.1369
0.737,0.2008,0.1428
0.7399,0.2174,0.153
0.7454,0.2271,0.1657
0.7537,0.234,0.1721
0.7659,0.2481,0.1814
0.78,0.2579,0.1921
0.7996,0.2668,0.1931
0.8084,0.2726,0.1877
0.8142,0.2755,0.1887
0.8211,0.2824,0.1853
0.8347,0.2799,0.1799
0.8455,0.2834,0.1755
0.8587,0.2834,0.1701
0.8709,0.2785,0.1638
0.8861,0.2721,0.1569
0.8993,0.2672,0.1398
0.9081,0.2633,0.1291
0.9203,0.2574,0.1223
0.93,0.2472,0.1091
0.9427,0.2423,0.0944
0.9471,0.2349,0.0822
0.9525,0.2242,0.0651
0.9662,0.2198,0.0568
0.9677,0.21,0.0436
0.9643,0.2027,0.0363
0.9716,0.1993,0.0245
0.9716,0.19,0.0197
0.9735,0.1886,0.0099
0.976,0.1842,0.0074
0.9755,0.1812,0.0065
0.9775,0.1754,0.004
0.977,0.1734,0.0079
0.976,0.168,0.0123
0.977,0.169,0.0118
0.9765,0.1641,0.0182
0.9794,0.1632,0.0275
0.976,0.1543,0.0358
0.977,0.1543,0.0431
0.975,0.1548,0.0553
0.9775,0.1519,0.0773
0.9745,0.1489,0.09
0.9726,0.148,0.1076
0.9662,0.1436,0.1174
0.9628,0.1489,0.1291
0.9574,0.1421,0.1462
0.9535,0.1387,0.1604
0.9496,0.1392,0.174
0.9427,0.1353,0.1892
0.9378,0.1372,0.1989
0.9325,0.1333,0.2063
0.9315,0.126,0.2176
0.9271,0.1265,0.2224
0.9207,0.1192,0.2288
0.9124,0.1133,0.2371
0.9124,0.1113,0.2415
0.9129,0.1109,0.2469
0.9095,0.1074,0.2459
0.9085,0.0986,0.2498
0.9081,0.0991,0.2464
0.9061,0.0918,0.2473
0.9066,0.0899,0.24
0.9041,0.0923,0.2346
0.9061,0.0869,0.2337
0.9022,0.0903,0.2307
0.9032,0.0923,0.2244
0.9085,0.0972,0.2219
0.9076,0.0991,0.22
0.9081,0.1089,0.2185
0.9159,0.1084,0.2146
0.9222,0.1162,0.2097
0.9291,0.1187,0.2038
0.9334,0.1304,0.1984
0.9369,0.1387,0.196
0.9447,0.1465,0.1897
0.952,0.1646,0.1862
0.9613,0.1749,0.1862
0.9696,0.1934,0.1862
0.9799,0.2052,0.1828
0.9921,0.2208,0.1779
0.9994,0.2354,0.1809
1.0116,0.2535,0.1848
1.0195,0.2711,0.1882
1.0326,0.2794,0.1941
1.0483,0.2887,0.2009
1.0561,0.3034,0.2063
1.0649,0.3156,0.2082
1.0796,0.3258,0.2136
1.0947,0.3293,0.218
1.1128,0.3371,0.2205
1.1279,0.3434,0.2239
1.144,0.3429,0.2268
1.168,0.3459,0.2244
1.1973,0.3366,0.2278
1.2203,0.3327,0.2259
1.2413,0.3239,0.2234
1.2667,0.3156,0.2161
1.2882,0.3083,0.2112
1.3117,0.2975,0.2072
1.3283,0.2858,0.1936
1.3449,0.2731,0.1862
1.3634,0.2589,0.1765
1.3894,0.2423,0.1618
1.3996,0.2301,0.1481
1.4084,0.2149,0.1413
1.425,0.2056,0.1306
1.4328,0.192,0.1218
1.4367,0.1842,0.1145
1.4421,0.1724,0.1062
1.446,0.1651,0.1007
1.448,0.1519,0.1027
1.4475,0.1411,0.1125
1.4445,0.1338,0.1179
1.4372,0.1275,0.1232
1.4338,0.1196,0.1281
1.427,0.1152,0.1394
1.4148,0.1118,0.1496
1.403,0.1094,0.1613
1.3933,0.1133,0.1648
1.3864,0.1157,0.174
1.3859,0.1148,0.1701
1.3869,0.1187,0.1721
1.3913,0.125,0.1662
1.4006,0.1284,0.1569
1.4133,0.1284,0.1379
1.4333,0.1284,0.1081
1.4553,0.1304,0.0734
1.4704,0.1289,0.0431
1.4895,0.1265,0.0118
1.5037,0.1304,-0.018
1.513,0.1358,-0.0478
1.5135,0.1387,-0.0654
1.5247,0.1387,-0.083
1.5232,0.1382,-0.1089
1.5149,0.1431,-0.1265
1.5125,0.1485,-0.1514
1.5013,0.1553,-0.1807
1.4851,0.1705,-0.2105
1.4611,0.1744,-0.2364
1.4343,0.1768,-0.2672
1.3947,0.1851,-0.2921
1.3551,0.1895,-0.3195
1.3097,0.193,-0.3463
1.2667,0.1915,-0.3722
1.2159,0.1856,-0.402
1.165,0.1822,-0.426
1.1201,0.1705,-0.4509
1.0791,0.1533,-0.4768
1.0453,0.1338,-0.491
1.0112,0.1109,-0.5027
0.9843,0.0923,-0.5129
0.9525,0.0645,-0.5076
0.9232,0.0385,-0.4993
0.8831,0.0131,-0.4924
0.8661,-0.002,-0.4841
0.8495,-0.0196,-0.4641
0.8245,-0.0508,-0.4397
0.803,-0.0714,-0.4167
0.7732,-0.0934,-0.3874
0.7483,-0.1173,-0.3488
0.7229,-0.1383,-0.3067
0.6955,-0.1564,-0.2642
0.6677,-0.175,-0.2188
0.6418,-0.2043,-0.1607
0.6237,-0.2268,-0.1044
0.6036,-0.2497,-0.0527
0.5822,-0.2644,-0.0073
0.567,-0.2859,0.0411
0.5607,-0.3045,0.0924
0.5509,-0.3142,0.135
0.546,-0.3147,0.1755
0.5548,-0.3201,0.2132
0.5631,-0.3177,0.239
0.5763,-0.3118,0.2625
0.5988,-0.2991,0.283
0.6256,-0.2815,0.2996
0.6608,-0.2664,0.3103
0.7014,-0.2483,0.3108
0.7385,-0.2321,0.303
0.7742,-0.2131,0.2937
0.8069,-0.1921,0.2752
0.8338,-0.1691,0.2576
0.8636,-0.1486,0.2395
0.8788,-0.1276,0.2122
0.8939,-0.1061,0.1701
0.911,-0.0822,0.1311
0.9242,-0.0523,0.0856
0.9344,-0.024,0.0338
0.9486,-0.001,-0.0102
0.9594,0.0278,-0.0507
0.9726,0.0571,-0.0937
0.9897,0.0816,-0.1377
1.0068,0.1025,-0.1802
1.0234,0.1231,-0.2179
1.038,0.1416,-0.2525
1.0536,0.1646,-0.2828
1.0718,0.1915,-0.3058
1.0962,0.2188,-0.3273
1.1108,0.2428,-0.3542
1.1269,0.2618,-0.3708
1.1465,0.2814,-0.383
1.1631,0.2941,-0.3952
1.1832,0.3048,-0.3996
1.2027,0.3205,-0.402
1.2139,0.3351,-0.4079
1.2173,0.3395,-0.4064
1.2217,0.3478,-0.404
1.2208,0.3498,-0.402
1.2164,0.3512,-0.3844
1.2188,0.3556,-0.3781
1.212,0.3537,-0.361
1.2012,0.3512,-0.338
1.1944,0.3449,-0.318
1.1763,0.3371,-0.3043
1.1533,0.3332,-0.276
1.1191,0.3161,-0.2481
1.0947,0.3053,-0.2286
1.0727,0.2941,-0.1948
1.0448,0.2794,-0.1651
1.0185,0.2628,-0.1343
0.9955,0.2472,-0.1059
0.9755,0.2301,-0.0742
0.954,0.2144,-0.0512
0.933,0.1993,-0.0258
0.9149,0.1734,0.0011
0.8949,0.1572,0.0241
0.8768,0.1397,0.0494
0.8607,0.126,0.0724
0.8426,0.1109,0.0929
0.8279,0.0977,0.1159
0.8113,0.083,0.1379
0.7971,0.0703,0.1525
0.7791,0.061,0.1643
0.762,0.0468,0.1799
0.7493,0.0327,0.1911
0.7404,0.02,0.2087
0.7263,0.0107,0.2166
0.7131,0.0014,0.2254
0.7092,-0.0108,0.2307
0.6999,-0.0245,0.2376
0.6926,-0.0313,0.2449
0.6848,-0.0391,0.2493
0.6794,-0.0465,0.2478
0.6809,-0.0538,0.2454
0.6799,-0.0568,0.2444
0.6818,-0.0602,0.2434
0.6833,-0.0641,0.2356
0.6872,-0.067,0.2229
0.6911,-0.0665,0.2185
0.6965,-0.066,0.2053
0.7058,-0.0665,0.1897
0.7116,-0.068,0.1774
0.7204,-0.0646,0.1672
0.7282,-0.0563,0.1545
0.7434,-0.0518,0.1418
0.7493,-0.046,0.1281
0.7664,-0.0386,0.1174
0.7796,-0.0377,0.1052
0.7942,-0.0264,0.0905
0.8079,-0.0142,0.0783
0.8211,-0.0084,0.0656
0.8274,-0.001,0.0509
0.8362,0.0082,0.0387
0.844,0.0146,0.0314
0.8484,0.0297,0.025
0.8563,0.0395,0.0236
0.87,0.0483,0.0255
0.8783,0.0586,0.0221
0.8944,0.062,0.0201
0.9051,0.0645,0.0221
0.9217,0.0757,0.0221
0.9325,0.0776,0.0231
0.9452,0.0776,0.0231
0.9579,0.0791,0.0309
0.9682,0.0806,0.0333
0.9819,0.083,0.0402
0.9897,0.0859,0.046
0.997,0.0859,0.049
1.0038,0.0845,0.0607
1.0131,0.083,0.07
1.0209,0.0786,0.0753
1.0234,0.0767,0.0807
1.0278,0.0757,0.0914
1.0307,0.0684,0.0997
1.0282,0.0601,0.1027
1.0292,0.0571,0.1052
1.0282,0.0507,0.1096
1.0258,0.0502,0.1159
1.0224,0.0444,0.1257
1.0224,0.0429,0.1311
1.0175,0.0375,0.1345
1.0175,0.0302,0.1442
1.0141,0.0224,0.1486
1.0126,0.0224,0.1564
1.0082,0.02,0.1579
1.0087,0.0131,0.1628
1.0072,0.0073,0.1677
1.0063,0.0073,0.1696
1.0038,-0.001,0.1779
1.0028,-0.001,0.177
1.0019,-0.004,0.1814
1.0028,-0.0069,0.1804
1.0048,-0.0084,0.1814
0.995,-0.0186,0.1828
0.9936,-0.0186,0.1774
0.9936,-0.0191,0.1828
0.9916,-0.0162,0.1828
0.9911,-0.0215,0.1823
0.9858,-0.0196,0.1823
0.9867,-0.0191,0.1809
0.9916,-0.0186,0.1828
0.997,-0.0225,0.1818
0.996,-0.0181,0.1799
1.0014,-0.0191,0.1784
1.0136,-0.0264,0.1779
1.0195,-0.0255,0.177
1.0297,-0.0211,0.1701
1.0414,-0.0196,0.1662
1.0527,-0.0225,0.1672
1.0585,-0.0191,0.1618
1.0718,-0.0255,0.1584
1.0845,-0.0225,0.1604
1.0898,-0.0211,0.1599
1.1035,-0.0215,0.1618
1.1113,-0.0196,0.1633
1.1211,-0.0245,0.1613
1.126,-0.0264,0.1648
1.1367,-0.025,0.1672
1.1426,-0.0235,0.1662
1.1514,-0.0211,0.1701
1.1616,-0.0255,0.1721
1.1729,-0.0284,0.1818
1.1846,-0.0215,0.1848
1.1954,-0.022,0.1926
1.2125,-0.0333,0.1994
1.2217,-0.0313,0.2107
1.2281,-0.0308,0.2117
1.2349,-0.0298,0.2229
1.2476,-0.025,0.2351
1.2554,-0.0308,0.2493
1.2628,-0.0308,0.2552
1.2652,-0.0308,0.2625
1.2696,-0.024,0.2713
1.276,-0.0186,0.283
1.276,-0.0137,0.2923
1.273,-0.0108,0.3011
1.2701,-0.003,0.305
1.2711,0.0029,0.3157
1.2706,0.017,0.3236
1.2701,0.0263,0.3275
1.2662,0.0419,0.3299
1.2662,0.0596,0.3299
1.2545,0.0693,0.3294
1.2501,0.0728,0.3319
1.2452,0.083,0.325
1.2359,0.0874,0.3089
1.2261,0.0884,0.2976
1.2183,0.0938,0.283
1.2076,0.0977,0.263
1.1964,0.1025,0.2371
1.189,0.1021,0.218
1.1841,0.1079,0.1931
1.1807,0.1109,0.1579
1.1783,0.1162,0.1271
1.1851,0.1152,0.0973
1.1934,0.1157,0.0558
1.2115,0.1162,0.0099
1.2276,0.1123,-0.0253
1.2442,0.1021,-0.0654
1.2569,0.0938,-0.1054
1.2647,0.0855,-0.1445
1.2681,0.0713,-0.189
1.2765,0.0517,-0.2262
1.276,0.0336,-0.2613
1.2716,0.0141,-0.2896
1.2672,0.0004,-0.3111
1.2545,-0.0093,-0.3302
1.2442,-0.0289,-0.3498
1.2271,-0.0352,-0.361
1.2105,-0.0411,-0.3654
1.1934,-0.044,-0.3727
1.17,-0.0534,-0.3693
1.1484,-0.0563,-0.3683
1.1269,-0.0534,-0.3654
1.1016,-0.0568,-0.3561
1.0776,-0.0558,-0.3503
1.0556,-0.0553,-0.3424
1.0356,-0.0504,-0.3312
1.0092,-0.043,-0.3254
0.9911,-0.0386,-0.3082
0.975,-0.0303,-0.296
0.9555,-0.0191,-0.2823
0.9422,-0.0089,-0.2725
0.9251,-0.0005,-0.2613
0.912,0.0112,-0.2452
0.8934,0.0253,-0.231
0.8714,0.0419,-0.2218
0.8474,0.0507,-0.2105
0.8245,0.0664,-0.2061
0.7986,0.0899,-0.1968
0.7732,0.1192,-0.188
0.7581,0.1445,-0.1768
0.7464,0.1661,-0.1636
0.739,0.1973,-0.1411
0.7424,0.2349,-0.1206
0.7537,0.2642,-0.1221
0.7634,0.2863,-0.1177
0.7786,0.3107,-0.1157
0.7937,0.3297,-0.1104
0.8142,0.3532,-0.1044
0.8323,0.3752,-0.1089
0.8524,0.3943,-0.1059
0.8783,0.4065,-0.0991
0.8968,0.4226,-0.102
0.9203,0.4324,-0.1059
0.9457,0.4314,-0.1123
0.974,0.4284,-0.1133
0.9833,0.4109,-0.1157
0.976,0.3943,-0.1279
0.9692,0.3806,-0.1353
0.9648,0.3615,-0.1372
0.9589,0.3429,-0.1367
0.9618,0.3161,-0.1328
0.9667,0.2907,-0.1118
0.9809,0.2672,-0.0952
0.9936,0.2403,-0.0781
1.0102,0.2081,-0.0595
1.0321,0.1759,-0.0395
1.0473,0.1402,-0.0165
1.0585,0.106,0.0035
1.0659,0.082,0.0294
1.0688,0.0532,0.0475
1.0786,0.0175,0.0646
1.0874,-0.0142,0.0817
1.0952,-0.0411,0.1017
1.0996,-0.066,0.1145
1.1138,-0.0885,0.1306
1.1201,-0.1159,0.1433
1.1211,-0.1364,0.156
1.1235,-0.1564,0.1633
1.1318,-0.174,0.1691
1.1406,-0.1955,0.1789
1.1392,-0.2141,0.1765
1.1362,-0.2302,0.177
1.1435,-0.2497,0.1745
1.1411,-0.2659,0.1691
1.1382,-0.2791,0.1628
1.1352,-0.2918,0.1574
1.1289,-0.304,0.1481
1.1186,-0.3089,0.1413
1.1094,-0.3157,0.133
1.0947,-0.3147,0.1223
1.0771,-0.3103,0.1125
1.06,-0.3108,0.0988
1.0429,-0.3055,0.0846
1.0321,-0.2967,0.069
1.0146,-0.2781,0.0602
1.0082,-0.2551,0.049
1.0009,-0.2317,0.0402
0.9985,-0.2165,0.0407
1.0033,-0.1975,0.0431
0.9989,-0.177,0.0387
0.996,-0.1554,0.0275
0.9814,-0.1388,0.0216
0.9662,-0.1222,0.0172
0.9496,-0.1071,0.0143
0.9339,-0.0831,0.0123
0.9134,-0.066,0.0089
0.8949,-0.045,0.0104
0.8729,-0.0245,0.0211
0.8519,-0.0001,0.0289
0.8352,0.0219,0.0397
0.8152,0.0473,0.047
0.8006,0.0698,0.0524
0.7864,0.0913,0.0592
0.7688,0.1118,0.0709
0.7527,0.1343,0.0748
0.7434,0.1524,0.0866
0.7375,0.169,0.09
0.7243,0.1871,0.1041
0.717,0.2003,0.114
0.7106,0.2193,0.1228
0.7067,0.2369,0.135
0.6994,0.253,0.1442
0.7004,0.2628,0.1511
0.7028,0.2755,0.1604
0.7014,0.2863,0.1706
0.7043,0.2897,0.1696
0.7033,0.2961,0.174
0.7077,0.3029,0.1789
0.7102,0.3068,0.1774
0.7136,0.3053,0.1765
0.718,0.3073,0.1755
0.7214,0.3097,0.1701
0.7258,0.3102,0.1667
0.7312,0.3039,0.1555
0.7365,0.2995,0.1516
0.739,0.3014,0.1496
0.7449,0.299,0.1374
0.7537,0.2897,0.1291
0.7634,0.2868,0.1203
0.7771,0.2804,0.1081
0.784,0.2741,0.0939
0.7923,0.2677,0.0836
0.8035,0.2564,0.0778
0.8123,0.2486,0.0617
0.8245,0.2428,0.0568
0.8367,0.2296,0.049
0.8455,0.2262,0.0372
0.8524,0.2179,0.0328
0.8607,0.2056,0.028
0.8656,0.1978,0.0226
0.8778,0.1934,0.0187
0.8851,0.1856,0.0192
0.8924,0.1778,0.0192
0.9002,0.1744,0.0172
0.9027,0.169,0.0182
0.912,0.1607,0.0245
0.9139,0.1553,0.0245
0.9188,0.1519,0.0275
0.9203,0.148,0.0294
0.9242,0.1406,0.0348
0.9266,0.1382,0.0416
0.9315,0.1392,0.048
0.9295,0.1343,0.0646
0.9334,0.1348,0.0704
0.9334,0.1338,0.0792
0.9334,0.1294,0.09
0.9403,0.1289,0.0997
0.9413,0.1314,0.1169
0.9432,0.1284,0.1262
0.9461,0.1323,0.1359
0.9481,0.1314,0.1481
0.9491,0.1265,0.1604
0.9505,0.1265,0.1716
0.9505,0.1279,0.1862
0.955,0.1289,0.1965
0.9589,0.1206,0.2053
0.9599,0.1226,0.2097
0.9648,0.1226,0.2141
0.9652,0.1265,0.218
0.9652,0.1275,0.2166
0.9594,0.125,0.2141
0.952,0.1275,0.2151
0.952,0.1318,0.2112
0.9481,0.1377,0.2033
0.9457,0.1406,0.1945
0.9388,0.1445,0.1941
0.9349,0.1602,0.1882
0.9286,0.1685,0.1853
0.9271,0.1778,0.1838
0.9188,0.189,0.1799
0.9173,0.2047,0.1794
0.9154,0.2174,0.1779
0.911,0.2359,0.1818
0.9129,0.2501,0.1789
0.9139,0.2628,0.1833
0.9193,0.2794,0.1823
0.9256,0.2951,0.1823
0.9349,0.3112,0.1916
0.9432,0.3258,0.1945
0.9594,0.3332,0.1941
0.974,0.3444,0.2028
0.9936,0.3542,0.2092
1.0126,0.36,0.2151
1.0331,0.362,0.2239
1.0556,0.3649,0.2322
1.0806,0.362,0.2356
1.1045,0.363,0.2425
1.1294,0.3561,0.2464
1.1567,0.3483,0.2522
1.1885,0.3483,0.2552
1.2178,0.3327,0.2591
1.2481,0.32,0.2586
1.2794,0.3068,0.26
1.3121,0.2917,0.2571
1.3371,0.2765,0.2527
1.3639,0.2594,0.2464
1.3952,0.2418,0.2439
1.4167,0.2281,0.2317
1.4377,0.2086,0.2273
1.4524,0.1895,0.221
1.469,0.171,0.2117
1.489,0.1533,0.2067
1.5042,0.1358,0.1984
1.5154,0.1245,0.1897
1.5179,0.1113,0.1857
1.5257,0.0972,0.1823
1.5266,0.0928,0.1843
1.5203,0.0869,0.1799
1.5154,0.0816,0.1779
1.5061,0.0816,0.1804
1.493,0.0772,0.1779
1.4817,0.0806,0.1911
1.4675,0.0767,0.196
1.4587,0.0801,0.2048
1.4587,0.0903,0.2176
1.4592,0.0918,0.2278
1.4528,0.0942,0.2454
1.4362,0.0908,0.2532
1.4265,0.0982,0.26
1.4084,0.103,0.2644
1.3903,0.1152,0.2654
1.3761,0.1279,0.2591
1.3659,0.1406,0.2473
1.362,0.1548,0.2298
1.3595,0.1666,0.2028
1.3722,0.1851,0.1687
1.4011,0.2052,0.1267
1.4362,0.2188,0.0797
1.4743,0.2345,0.0319
1.5066,0.2413,-0.0175
1.5345,0.2452,-0.0678
1.5608,0.2516,-0.1187
1.5813,0.2491,-0.1778
1.5389,0.2056,-0.2608
1.5276,0.1749,-0.3366
1.5584,0.214,-0.3522
1.5701,0.2432,-0.3693
1.5638,0.2687,-0.3888
1.5545,0.2843,-0.4206
1.5266,0.2897,-0.4465
1.4866,0.2951,-0.4787
1.4294,0.2726,-0.5217
1.3712,0.2432,-0.5657
1.3136,0.2203,-0.5941
1.2662,0.2017,-0.6121
1.2203,0.1768,-0.6258
1.1802,0.1485,-0.6317
1.1357,0.1211,-0.6331
1.0947,0.0894,-0.6375
1.0488,0.0601,-0.6341
0.9941,0.0288,-0.639
0.9457,-0.0015,-0.6326
0.9022,-0.0279,-0.6214
0.87,-0.0494,-0.6058
0.8426,-0.0656,-0.5799
0.8167,-0.0875,-0.5516
0.7923,-0.1061,-0.5163
0.7708,-0.1232,-0.4724
0.7493,-0.1393,-0.428
0.7307,-0.1486,-0.381
0.7062,-0.1657,-0.3189
0.6833,-0.1804,-0.2603
0.6647,-0.1921,-0.1934
0.6574,-0.1901,-0.1211
0.6896,-0.1378,-0.0317
0.697,-0.1246,0.045
0.6853,-0.1486,0.0988
0.6828,-0.1735,0.153
0.6765,-0.1965,0.1911
0.6677,-0.218,0.2254
0.6589,-0.2312,0.2586
0.6447,-0.2487,0.2815
0.6334,-0.2654,0.2996
0.6261,-0.2786,0.3128
0.6134,-0.2869,0.3255
0.6261,-0.2654,0.3402
0.6686,-0.2102,0.3573
0.7126,-0.1726,0.3597
0.7493,-0.1559,0.3563
0.782,-0.1408,0.3558
0.8006,-0.1246,0.3128
0.8284,-0.1095,0.2693
0.845,-0.0905,0.2215
0.8607,-0.0641,0.1696
0.8773,-0.0396,0.1145
0.8831,-0.0132,0.0509
0.8841,0.0131,-0.0087
0.8919,0.0356,-0.0512
0.9183,0.0532,-0.0937
0.9422,0.0723,-0.1328
0.955,0.0967,-0.1792
0.9628,0.1216,-0.2247
0.9745,0.1416,-0.2623
0.9892,0.1617,-0.2877
1.0063,0.1837,-0.3121
1.0229,0.1978,-0.3219
1.0453,0.213,-0.3322
1.0605,0.2276,-0.3302
1.081,0.2418,-0.3288
1.0942,0.2589,-0.3288
1.1045,0.2692,-0.3214
1.1138,0.2834,-0.317
1.1191,0.2956,-0.3097
1.1235,0.3058,-0.2989
1.1226,0.3166,-0.2852
1.1177,0.3214,-0.2745
1.1103,0.3244,-0.2667
1.0937,0.3341,-0.2506
1.0869,0.3332,-0.2398
1.0742,0.3361,-0.232
1.0585,0.3429,-0.2183
1.0463,0.3459,-0.2017
1.0346,0.3483,-0.187
1.018,0.3468,-0.1695
1.0038,0.3444,-0.1524
0.9887,0.338,-0.147
0.974,0.3356,-0.1343
0.9589,0.3307,-0.1216
0.9452,0.3224,-0.1074
0.9295,0.3146,-0.102
0.9134,0.3097,-0.0878
0.9002,0.3019,-0.08
0.8822,0.2941,-0.0756
0.8636,0.2819,-0.0688
0.8445,0.2775,-0.0634
0.8313,0.2658,-0.0571
0.8137,0.2569,-0.0527
0.7942,0.2467,-0.0473
0.7717,0.2379,-0.0336
0.7576,0.2257,-0.0239
0.7336,0.214,-0.019
0.7131,0.1988,-0.0073
0.697,0.1881,-0.0004
0.6755,0.1807,0.0114
0.6584,0.1685,0.0236
0.6433,0.1582,0.0289
0.6305,0.1431,0.0397
0.6129,0.1309,0.0553
0.5978,0.1235,0.066
0.5909,0.1099,0.0753
0.5865,0.0957,0.0885
0.588,0.0884,0.1062
0.5841,0.0728,0.114
0.5802,0.0571,0.1257
0.5797,0.0473,0.1384
0.5797,0.0351,0.1535
0.5826,0.0234,0.1657
0.5851,0.0102,0.174
0.589,0.0034,0.1857
0.5963,-0.0049,0.1887
0.6134,-0.0147,0.1911
0.6222,-0.0196,0.196
0.6389,-0.0259,0.195
0.6569,-0.0264,0.1965
0.6769,-0.0328,0.1984
0.7048,-0.0289,0.2009
0.736,-0.0372,0.1945
0.7649,-0.0362,0.1853
0.7874,-0.0318,0.174
0.8093,-0.0308,0.1613
0.8274,-0.0255,0.1462
0.8474,-0.0235,0.134
0.8656,-0.0181,0.1218
0.8836,-0.0162,0.1115
0.9046,-0.0093,0.0983
0.9217,-0.0045,0.089
0.932,-0.004,0.0778
0.9442,0.0034,0.0651
0.9682,0.0063,0.0543
0.9804,0.0087,0.0499
0.9975,0.0107,0.0416
1.0151,0.0136,0.0343
1.0326,0.0165,0.0304
1.0483,0.0219,0.0211
1.0635,0.0258,0.0221
1.0781,0.0244,0.0192
1.0869,0.0248,0.0172
1.1011,0.0278,0.0221
1.1113,0.0302,0.0236
1.1182,0.0322,0.025
1.1255,0.0317,0.0314
1.1313,0.0341,0.0348
1.1382,0.0351,0.046
1.1431,0.0356,0.0529
1.146,0.0371,0.0631
1.1479,0.04,0.069
1.1504,0.041,0.0807
1.1514,0.0424,0.0924
1.1479,0.0458,0.0993
1.1445,0.0468,0.112
1.1455,0.0478,0.1203
1.1465,0.0502,0.132
1.1411,0.0517,0.1452
1.1455,0.0507,0.1525
1.1382,0.0507,0.1569
1.1318,0.0517,0.1696
1.1299,0.0522,0.1745
1.1235,0.0439,0.1809
1.1147,0.0429,0.1931
1.1103,0.0405,0.1999
1.0957,0.0351,0.2092
1.0859,0.0317,0.2219
1.0762,0.0341,0.2283
1.062,0.0302,0.24
1.0531,0.0258,0.2503
1.0385,0.0239,0.2586
1.0229,0.0209,0.2703
1.0097,0.0151,0.2762
1.0019,0.0107,0.2845
0.9853,0.0058,0.2923
0.976,0.0038,0.2971
0.9672,-0.001,0.2981
0.9589,-0.0049,0.3025
0.9525,-0.0128,0.304
0.9515,-0.0167,0.3055
0.9471,-0.022,0.3011
0.9505,-0.0259,0.305
0.951,-0.0352,0.3055
0.9599,-0.0396,0.3059
0.9633,-0.045,0.3025
0.9731,-0.0528,0.304
0.9906,-0.0665,0.3045
0.997,-0.0734,0.3011
1.0063,-0.0851,0.2962
1.0155,-0.0973,0.2923
1.0268,-0.108,0.2942
1.0346,-0.1163,0.2864
1.0439,-0.1295,0.2835
1.0585,-0.1369,0.283
1.0757,-0.1403,0.2898
1.0903,-0.1466,0.2859
1.1108,-0.152,0.2898
1.1284,-0.1608,0.2967
1.1484,-0.1599,0.3025
1.1695,-0.1638,0.3094
1.191,-0.1691,0.325
1.2134,-0.1672,0.3304
1.2364,-0.1648,0.3382
1.255,-0.1574,0.349
1.276,-0.1535,0.3597
1.2931,-0.1456,0.3724
1.3102,-0.1359,0.3778
1.3287,-0.1246,0.3871
1.339,-0.1144,0.39
1.3502,-0.0993,0.3929
1.361,-0.0807,0.3988
1.3698,-0.0626,0.3934
1.3796,-0.043,0.3856
1.3776,-0.0162,0.3817
1.3796,0.0136,0.3646
1.383,0.0307,0.3485
1.383,0.0502,0.3294
1.3859,0.0664,0.3098
1.3859,0.0772,0.2796
1.3884,0.0859,0.2522
1.3918,0.0899,0.2263
1.3947,0.0982,0.195
1.3996,0.106,0.1618
1.3918,0.1128,0.1257
1.3908,0.1172,0.0807
1.3879,0.127,0.0353
1.3859,0.1392,-0.0034
1.3811,0.1489,-0.0551
1.3766,0.1641,-0.1094
1.3811,0.1724,-0.1699
1.382,0.1744,-0.2384
1.3825,0.1715,-0.2984
1.3806,0.1607,-0.36
1.3698,0.146,-0.4191
1.3644,0.1299,-0.469
1.3512,0.1128,-0.5222
1.3351,0.0947,-0.5648
1.3156,0.0747,-0.6019
1.2936,0.0615,-0.6204
1.2686,0.0547,-0.6326
1.2398,0.0517,-0.6405
1.2125,0.0507,-0.6336
1.1861,0.0562,-0.6136
1.1602,0.0645,-0.596
1.1318,0.0698,-0.5726
1.1118,0.0762,-0.5462
1.0942,0.0884,-0.5198
1.0723,0.1016,-0.4929
1.0575,0.1069,-0.468
1.0409,0.1196,-0.4446
1.0278,0.125,-0.4201
1.0151,0.1362,-0.3903
0.9999,0.148,-0.3717
0.9804,0.1524,-0.3561
0.9579,0.1612,-0.3449
0.9339,0.1847,-0.3312
0.912,0.2081,-0.315
0.8866,0.2276,-0.2896
0.8714,0.2599,-0.2784
0.8563,0.2912,-0.2638
0.8474,0.3073,-0.2516
0.8391,0.3297,-0.2389
0.8377,0.3473,-0.2242
0.8357,0.3639,-0.2119
0.8401,0.3791,-0.1919
0.8474,0.3967,-0.1738
0.8553,0.405,-0.1577
0.8719,0.4118,-0.1338
0.8841,0.4133,-0.1167
0.8949,0.4177,-0.0966
0.9076,0.4138,-0.081
0.9237,0.406,-0.0698
0.9364,0.4006,-0.0571
0.9437,0.3913,-0.0488
0.9403,0.3723,-0.0483
0.9154,0.3405,-0.0488
0.8768,0.319,-0.0439
0.8386,0.2995,-0.0449
0.8074,0.2809,-0.0414
0.7874,0.2564,-0.0346
0.7766,0.2276,-0.0229
0.7737,0.2013,-0.0087
0.7791,0.1729,0.0065
0.7927,0.1387,0.0153
0.8123,0.1079,0.0382
0.8313,0.0796,0.0538
0.8484,0.0468,0.0748
0.8661,0.0234,0.0905
0.8846,0.0068,0.1012
0.8954,-0.0235,0.1164
0.9095,-0.0401,0.1237
0.9242,-0.0631,0.1379
0.9422,-0.0812,0.1394
0.9618,-0.0953,0.1462
0.9765,-0.1115,0.1594
0.9936,-0.131,0.1652
1.0077,-0.1452,0.1721
1.0204,-0.1588,0.174
1.0273,-0.177,0.1784
1.0346,-0.1911,0.1731
1.04,-0.2053,0.1735
1.0492,-0.2058,0.1735
1.0468,-0.2107,0.1628
1.0341,-0.2165,0.1486
1.0312,-0.2292,0.1423
1.0273,-0.2341,0.1364
1.0243,-0.2312,0.1281
1.017,-0.2263,0.113
1.0087,-0.2258,0.0919
0.9931,-0.219,0.0739
0.9828,-0.2141,0.0602
0.9721,-0.2126,0.047
0.9584,-0.2024,0.0289
0.9422,-0.197,0.0226
0.9325,-0.1784,0.0089
0.9295,-0.1623,0.0035
0.9305,-0.1456,-0.0014
0.93,-0.1354,-0.0087
0.9344,-0.1193,-0.0112
0.9256,-0.1022,-0.0229
0.9227,-0.087,-0.0248
0.9144,-0.0778,-0.0292
0.9032,-0.0695,-0.0371
0.888,-0.0479,-0.039
0.8768,-0.0333,-0.039
0.8661,-0.0147,-0.0419
0.8529,0.0014,-0.0385
0.8455,0.0165,-0.0288
0.8313,0.0356,-0.0185
0.825,0.0542,-0.0117
0.8196,0.0645,-0.0019
0.8069,0.0801,0.0079
0.7952,0.0957,0.0167
0.783,0.1045,0.0333
0.7757,0.1162,0.046
0.7678,0.1265,0.0577
0.76,0.1362,0.0734
0.7561,0.1397,0.0856
0.7488,0.147,0.1012
0.7399,0.1612,0.1135
0.738,0.1666,0.1276
0.7351,0.171,0.1428
0.7297,0.1768,0.154
0.7263,0.1856,0.1633
0.7263,0.1866,0.1735
0.7277,0.1886,0.1818
0.7307,0.1949,0.1897
0.7297,0.1969,0.1931
0.7346,0.1944,0.196
0.7434,0.1998,0.196
0.7498,0.2027,0.1975
0.7493,0.1973,0.2004
0.76,0.2047,0.1999
0.7683,0.2071,0.2004
0.7747,0.2056,0.1965
0.78,0.2081,0.1892
0.7879,0.2061,0.1862
0.7981,0.2115,0.1774
0.8074,0.2159,0.1691
0.8137,0.2086,0.1643
0.8225,0.2105,0.1599
0.826,0.2096,0.1496
0.8343,0.2047,0.1408
0.8416,0.2047,0.1325
0.846,0.2003,0.1232
0.8534,0.2003,0.113
0.8612,0.2022,0.1032
0.8665,0.1983,0.0963
0.8758,0.1978,0.0914
0.8822,0.1949,0.0841
0.888,0.1934,0.0768
0.8929,0.1856,0.0729
0.9007,0.1866,0.0651
0.9037,0.1822,0.0597
0.9144,0.1837,0.0573
0.9217,0.1798,0.0529
0.9232,0.1739,0.0577
0.9281,0.1715,0.0563
0.9305,0.168,0.0582
0.9349,0.1656,0.0592
0.9354,0.1587,0.0582
0.9354,0.1543,0.0597
0.9374,0.1553,0.0656
0.9388,0.1543,0.0753
0.9378,0.147,0.0753
0.9378,0.1441,0.0792
0.9383,0.1416,0.0856
0.9369,0.1475,0.091
0.9339,0.1441,0.0983
0.9398,0.1441,0.1062
0.9447,0.1504,0.114
0.954,0.1548,0.1237
0.9692,0.1587,0.1291
0.9765,0.1637,0.1394
0.9784,0.1637,0.1423
0.9838,0.17,0.1477
0.9848,0.1729,0.1564
0.9936,0.1729,0.1613
0.9975,0.1832,0.1691
1.0043,0.1905,0.1765
1.0107,0.191,0.1809
1.0141,0.1944,0.1867
1.016,0.2037,0.196
1.0209,0.2086,0.2033
1.0248,0.2076,0.2058
1.0273,0.2105,0.2161
1.0234,0.211,0.2215
1.0195,0.2071,0.2239
1.0092,0.211,0.2254
1.0131,0.2125,0.2307
1.019,0.2086,0.2415
1.016,0.2105,0.2493
1.0229,0.2091,0.2532
1.0292,0.2071,0.2591
1.0297,0.1993,0.2615
1.0336,0.1954,0.2605
1.039,0.192,0.2635
1.0473,0.1886,0.2649
1.0605,0.1861,0.2595
1.083,0.1881,0.26
1.1069,0.1886,0.2615
1.1396,0.1876,0.2547
1.1744,0.1876,0.2517
1.2081,0.189,0.2478
1.2437,0.189,0.2542
1.277,0.1886,0.2464
1.3087,0.189,0.2366
1.3366,0.189,0.2381
1.362,0.1881,0.2312
1.3874,0.1837,0.2273
1.4079,0.1861,0.2283
1.424,0.1837,0.2205
1.4382,0.1822,0.2117
1.4445,0.1837,0.2132
1.4499,0.1817,0.2038
1.4372,0.1685,0.1887
1.3986,0.1494,0.1652
1.4182,0.171,0.1794
1.427,0.1343,0.155
1.4338,0.148,0.1701
1.447,0.1705,0.198
1.4572,0.1783,0.2127
1.4621,0.1807,0.2307
1.4611,0.1763,0.2415
1.4543,0.1671,0.2537
1.4436,0.1617,0.2688
1.424,0.1499,0.2805
1.4011,0.1314,0.2923
1.3835,0.1177,0.3055
1.3561,0.1035,0.3202
1.3458,0.0982,0.3338
1.3527,0.103,0.3504
1.3605,0.1118,0.3612
1.3566,0.1021,0.3646
1.3497,0.0952,0.3592
1.3444,0.0933,0.3436
1.3429,0.0972,0.3226
1.3478,0.0991,0.2928
1.3527,0.1045,0.2522
1.358,0.1162,0.2146
1.3624,0.1216,0.1706
1.3673,0.1323,0.1135
1.3815,0.1416,0.0558
1.3962,0.1597,0.0099
1.4167,0.1754,-0.0375
1.4353,0.19,-0.0888
1.4182,0.1705,-0.1631
1.3722,0.106,-0.2672
1.4318,0.1372,-0.2843
1.468,0.1817,-0.3048
1.4734,0.213,-0.339
1.4685,0.2296,-0.382
1.4504,0.2393,-0.4299
1.4167,0.2286,-0.4792
1.3703,0.19,-0.532
1.3278,0.1538,-0.5745
1.2907,0.1318,-0.6092
1.2554,0.1109,-0.6386
1.2134,0.0825,-0.6581
1.1739,0.0502,-0.6708
1.1304,0.0239,-0.6771
1.0947,-0.002,-0.682
1.0575,-0.0294,-0.6791
1.0214,-0.0494,-0.6796
0.9804,-0.0631,-0.6708
0.9461,-0.0783,-0.6517
0.9173,-0.0861,-0.6386
0.889,-0.1017,-0.6282
0.8685,-0.1129,-0.6038
0.844,-0.1242,-0.5794
0.8225,-0.1334,-0.5428
0.8084,-0.1442,-0.5051
0.7927,-0.152,-0.4577
0.7781,-0.1574,-0.4108
0.7659,-0.1628,-0.3527
0.7537,-0.1687,-0.2896
0.7468,-0.1731,-0.2335
0.7464,-0.1701,-0.1675
0.7454,-0.1588,-0.1025
0.7473,-0.1525,-0.0468
0.7537,-0.1456,0.0045
0.7537,-0.1359,0.0499
0.7556,-0.1246,0.0973
0.7527,-0.111,0.1413
0.7473,-0.0953,0.1814
0.7365,-0.0797,0.2161
0.7307,-0.0621,0.2381
0.718,-0.0455,0.262
0.7106,-0.0245,0.2801
0.7033,-0.0015,0.2893
0.6945,0.0239,0.2957
0.6853,0.0502,0.3059
0.6813,0.0679,0.3001
0.6848,0.0942,0.2849
0.6921,0.1099,0.2708
0.6901,0.1294,0.2542
0.6984,0.147,0.2307
0.7146,0.1641,0.2009
0.7209,0.1881,0.1701
0.7331,0.2081,0.1408
0.7468,0.2232,0.1032
0.7664,0.2389,0.0709
0.7796,0.2594,0.0333
0.7971,0.278,0.0001
0.8206,0.2941,-0.0317
0.8479,0.3097,-0.059
0.8753,0.32,-0.082
0.9041,0.3288,-0.1118
0.9359,0.3376,-0.1358
0.9648,0.3459,-0.1646
0.9936,0.3512,-0.1846
1.0209,0.3542,-0.2022
1.0453,0.3634,-0.2218
1.0693,0.3644,-0.2349
1.0879,0.3664,-0.2457
1.1094,0.3649,-0.2589
1.1182,0.3605,-0.2706
1.1338,0.3527,-0.2799
1.1548,0.3444,-0.2828
1.1665,0.3385,-0.2877
1.1665,0.3278,-0.2857
1.1739,0.319,-0.2882
1.1763,0.3092,-0.2848
1.1773,0.2961,-0.2789
1.1636,0.277,-0.2725
1.1465,0.2594,-0.2633
1.1265,0.2442,-0.2511
1.1011,0.2271,-0.2354
1.0766,0.2052,-0.2198
1.0531,0.189,-0.1924
1.0282,0.1739,-0.169
1.0063,0.1632,-0.1475
0.9838,0.1465,-0.1221
0.956,0.1333,-0.0961
0.9403,0.1275,-0.0786
0.9266,0.1138,-0.0571
0.911,0.1021,-0.0385
0.8944,0.0903,-0.02
0.8807,0.0796,-0.0043
0.8646,0.0689,0.0133
0.844,0.0635,0.0304
0.8245,0.0527,0.0475
0.8089,0.0419,0.069
0.7971,0.0302,0.0812
0.7776,0.0219,0.1066
0.76,0.0117,0.1296
0.7464,0.0009,0.1447
0.7297,-0.0069,0.1584
0.7194,-0.0147,0.1765
0.7087,-0.0201,0.1892
0.696,-0.0323,0.2009
0.6853,-0.0357,0.2122
0.6765,-0.046,0.2215
0.6726,-0.0543,0.2317
0.6667,-0.0508,0.2366
0.6633,-0.0592,0.2429
0.6633,-0.0621,0.2449
0.6677,-0.066,0.2473
0.6677,-0.0704,0.2493
0.6716,-0.0714,0.2439
0.6784,-0.0753,0.2415
0.6877,-0.0734,0.2312
0.6931,-0.0714,0.2268
0.7087,-0.0739,0.219
0.7214,-0.0714,0.2082
0.7341,-0.0709,0.198
0.7537,-0.069,0.1921
0.762,-0.0612,0.1857
0.7742,-0.0665,0.1765
0.7835,-0.0641,0.1682
0.7962,-0.0582,0.1628
0.8118,-0.0577,0.1506
0.8235,-0.0513,0.1447
0.8318,-0.0504,0.1389
0.8426,-0.0474,0.1335
0.8548,-0.045,0.1281
0.867,-0.044,0.1232
0.8783,-0.0391,0.1188
0.8875,-0.0338,0.1188
0.8993,-0.0338,0.1208
0.91,-0.0328,0.1223
0.9212,-0.0269,0.1257
0.9378,-0.0264,0.1247
0.9505,-0.0235,0.1306
0.9623,-0.0235,0.1428
0.9745,-0.0172,0.1408
0.9809,-0.0206,0.1433
0.9823,-0.0274,0.153
0.9902,-0.0289,0.1613
0.997,-0.0245,0.1784
0.9989,-0.0225,0.176
1.0038,-0.023,0.1814
1.0053,-0.024,0.1906
1.0126,-0.0172,0.2004
1.0092,-0.0172,0.2028
1.0077,-0.0137,0.2024
1.0058,-0.0049,0.2087
1.0043,-0.0079,0.2132
1.0043,-0.0054,0.2166
1.0053,-0.003,0.2273
1.0019,0.0019,0.2307
1.0033,0.0034,0.2381
0.9999,0.0078,0.2459
1.0009,0.0068,0.2488
0.9989,0.0024,0.2556
0.9989,0.0092,0.2552
1.0014,0.0087,0.2581
1.0009,0.0058,0.2586
0.9994,0.0024,0.26
0.9965,0.0053,0.2591
0.9994,0.0078,0.26
0.9945,0.0034,0.2561
0.9921,0.0014,0.2547
0.9965,-0.0001,0.2488
0.9965,-0.0015,0.2425
0.9902,-0.003,0.2385
0.997,-0.0015,0.2312
1.0028,-0.001,0.2239
1.0141,-0.001,0.2161
1.0195,-0.0001,0.2097
1.0297,0.0029,0.2033
1.0448,0.0063,0.1936
1.064,0.0092,0.1843
1.0859,0.0058,0.1774
1.1064,0.0092,0.1745
1.124,0.0102,0.1662
1.146,0.0117,0.1608
1.17,0.0107,0.1574
1.1929,0.0107,0.1511
1.2056,0.0082,0.1599
1.2149,0.0068,0.154
1.2286,0.0034,0.1584
1.2349,-0.0049,0.1599
1.2476,-0.0098,0.1677
1.2515,-0.0089,0.1696
1.2569,-0.0172,0.1789
1.2618,-0.0172,0.1897
1.2598,-0.0206,0.2024
1.2598,-0.0255,0.2127
1.2633,-0.0298,0.2215
1.2613,-0.0342,0.2342
1.2584,-0.0377,0.2469
1.2564,-0.0416,0.2566
1.252,-0.0479,0.2678
1.2491,-0.0494,0.2854
1.2452,-0.0518,0.2986
1.2388,-0.0528,0.3108
1.2364,-0.0489,0.327
1.232,-0.043,0.3407
1.2237,-0.0391,0.3534
1.2198,-0.0333,0.3661
1.2164,-0.025,0.3793
1.2115,-0.0152,0.389
1.2134,0.0004,0.3973
1.2076,0.0082,0.4027
1.2042,0.0165,0.3959
1.2022,0.0234,0.3968
1.2037,0.0224,0.3876
1.2047,0.0229,0.3724
1.213,0.0185,0.3558
1.2183,0.0161,0.3348
1.2247,0.0146,0.3138
1.2344,0.0141,0.2864
1.2501,0.0156,0.2508
1.2613,0.0141,0.2122
1.278,0.0229,0.1677
1.2887,0.0341,0.1184
1.3019,0.0488,0.0656
1.3063,0.0571,0.0114
1.317,0.0581,-0.0502
1.32,0.0547,-0.1084
1.3209,0.0488,-0.1743
1.3224,0.0424,-0.233
1.3253,0.0151,-0.2813
1.3209,-0.0064,-0.342
1.3136,-0.0206,-0.4074
1.2994,-0.0406,-0.4582
1.2824,-0.0577,-0.5032
1.2652,-0.068,-0.5399
1.2379,-0.0714,-0.5618
1.211,-0.0787,-0.5784
1.1793,-0.0748,-0.5765
1.1514,-0.0651,-0.5682
1.125,-0.0523,-0.5511
1.1059,-0.0391,-0.529
1.0835,-0.0255,-0.4988
1.0669,-0.0054,-0.4753
1.0522,0.0097,-0.449
1.0346,0.0219,-0.4309
1.0243,0.0439,-0.4054
1.0136,0.0649,-0.3932
1.0102,0.0752,-0.3805
1.0053,0.0874,-0.362
1.0019,0.1025,-0.3512
0.9921,0.1226,-0.3449
0.9843,0.1353,-0.3327
0.974,0.1509,-0.3249
0.9687,0.1749,-0.3195
0.9618,0.2096,-0.2979
0.9565,0.2384,-0.2862
0.9594,0.2628,-0.2789
0.9609,0.279,-0.2584
0.9652,0.298,-0.2432
0.9731,0.3175,-0.2315
0.9858,0.3297,-0.2085
0.9955,0.339,-0.1904
1.0107,0.3547,-0.1704
1.0195,0.363,-0.1475
1.0278,0.3688,-0.1255
1.0409,0.3738,-0.0996
1.0546,0.3772,-0.0815
1.0571,0.3855,-0.0654
1.062,0.3879,-0.0512
1.0669,0.3889,-0.0371
1.0575,0.384,-0.0302
1.0429,0.3708,-0.0244
1.0195,0.3605,-0.0151
0.9965,0.3517,-0.0087
0.977,0.3366,-0.0029
0.9613,0.3214,0.004
0.9491,0.3029,0.0104
0.9496,0.2794,0.0201
0.9515,0.2545,0.0314
0.9574,0.2296,0.0421
0.9726,0.1978,0.0577
0.9858,0.17,0.069
0.997,0.1411,0.0807
1.0063,0.1133,0.089
1.0204,0.083,0.1012
1.0209,0.0552,0.1071
1.019,0.0273,0.1057
1.0185,-0.0005,0.112
1.0253,-0.0333,0.114
1.0326,-0.0607,0.1101
1.0297,-0.0827,0.1125
1.0351,-0.1095,0.114
1.0414,-0.1315,0.1086
1.0478,-0.1476,0.1066
1.0434,-0.1662,0.1052
1.0409,-0.1818,0.1002
1.038,-0.1994,0.1017
1.0424,-0.2175,0.1022
1.0395,-0.2326,0.0968
1.0351,-0.2439,0.0924
1.0302,-0.2512,0.089
1.0185,-0.2575,0.0963
1.0053,-0.2595,0.0983
0.9887,-0.2683,0.0939
0.9711,-0.2669,0.0836
0.954,-0.2683,0.087
0.9334,-0.2634,0.0807
0.9164,-0.257,0.0807
0.9037,-0.2453,0.0787
0.8963,-0.2331,0.0802
0.8817,-0.2219,0.0807
0.8705,-0.2116,0.0797
0.8602,-0.197,0.0778
0.8479,-0.1857,0.0758
0.8377,-0.1765,0.0753
0.8255,-0.1672,0.0792
0.8084,-0.1496,0.0797
0.8015,-0.1373,0.0768
0.7883,-0.129,0.0797
0.7693,-0.109,0.0831
0.7586,-0.0973,0.0885
0.7537,-0.0831,0.0949
0.7493,-0.07,0.0973
0.7429,-0.0568,0.1066
0.7365,-0.0362,0.114
0.7321,-0.0196,0.1193
0.7346,-0.002,0.1267
0.7287,0.0165,0.1335
0.7248,0.0351,0.135
0.715,0.0517,0.1335
0.7126,0.0728,0.1374
0.7141,0.0855,0.1438
0.717,0.104,0.1447
0.7189,0.1192,0.1428
0.7209,0.1358,0.1438
0.7282,0.1528,0.1467
0.738,0.1656,0.1501
0.7464,0.1778,0.153
0.7566,0.191,0.1545
0.7664,0.2052,0.1555
0.7742,0.213,0.1628
0.7844,0.2164,0.1672
0.7869,0.2315,0.1667
0.7927,0.2374,0.1682
0.8001,0.2398,0.1667
0.8093,0.2447,0.174
0.8147,0.2486,0.1662
0.8216,0.2491,0.1672
0.8274,0.2501,0.1623
0.8386,0.2545,0.1589
0.8455,0.2555,0.1569
0.8553,0.2579,0.1511
0.8607,0.2574,0.1408
0.8695,0.2589,0.1335
0.8724,0.2569,0.1271
0.8773,0.2564,0.1198
0.8831,0.255,0.1052
0.8875,0.2545,0.0973
0.8934,0.255,0.0905
0.8954,0.2589,0.0768
0.9007,0.2535,0.0646
0.9081,0.2525,0.0558
0.9144,0.252,0.0529
0.9129,0.2496,0.045
0.9193,0.2467,0.0367
0.9207,0.2452,0.0314
0.9232,0.2403,0.026
0.9251,0.2369,0.0236
0.9305,0.231,0.026
0.931,0.2262,0.0245
0.9291,0.2203,0.0255
0.9305,0.2198,0.0304
0.9266,0.2144,0.0353
0.9251,0.2105,0.0411
0.9237,0.2047,0.0543
0.9193,0.1969,0.0675
0.9183,0.1915,0.0836
0.9124,0.1949,0.0997
0.9056,0.1876,0.1145
0.9007,0.1773,0.1281
0.9012,0.17,0.1496
0.8934,0.1637,0.1633
0.8831,0.1617,0.1755
0.8885,0.1514,0.1892
0.8827,0.1465,0.195
0.8792,0.148,0.2033
0.8744,0.145,0.2053
0.868,0.1455,0.2028
0.8651,0.1397,0.2092
0.8617,0.1411,0.2112
0.8641,0.1485,0.2117
0.8656,0.1553,0.2132
0.8656,0.1587,0.2092
0.8695,0.1622,0.2033
0.8753,0.1656,0.2053
0.8773,0.1793,0.2028
0.888,0.19,0.2004
0.9017,0.2032,0.2038
0.9232,0.2164,0.2024
0.9359,0.2286,0.198
0.9417,0.2345,0.198
0.9544,0.2457,0.1965
0.9667,0.2516,0.1926
0.9735,0.2642,0.1892
0.9823,0.2736,0.1882
0.9941,0.2848,0.1906
1.0038,0.2961,0.1994
1.0136,0.3024,0.1989
1.0258,0.3078,0.2063
1.038,0.3127,0.2087
1.0512,0.3112,0.2107
1.0703,0.3102,0.2117
1.0884,0.3083,0.2151
1.1108,0.3127,0.2141
1.1377,0.3092,0.2156
1.1645,0.3034,0.2156
1.1954,0.3,0.2141
1.2242,0.2946,0.2141
1.2623,0.2882,0.2136
1.3029,0.2814,0.2127
1.3351,0.2751,0.2072
1.3698,0.2658,0.2082
1.403,0.2603,0.2028
1.4284,0.2476,0.2028
1.4519,0.2403,0.1931
1.4738,0.2266,0.1843
1.4969,0.2203,0.177
1.5125,0.21,0.1711
1.5266,0.2003,0.1648
1.5359,0.192,0.1628
1.5452,0.1832,0.1579
1.5476,0.1734,0.1535
1.5511,0.1715,0.154
1.5472,0.1646,0.1569
1.5408,0.1568,0.1604
1.533,0.1485,0.1599
1.5218,0.1377,0.1652
1.51,0.1279,0.1774
1.4949,0.1231,0.1882
1.4778,0.1133,0.1975
1.4553,0.1001,0.2019
1.4401,0.0899,0.2107
1.4211,0.0874,0.2136
1.4016,0.083,0.2176
1.3899,0.0845,0.2185
1.384,0.085,0.2249
1.3991,0.0996,0.2268
1.4206,0.1104,0.2219
1.4221,0.1001,0.2033
1.4245,0.0967,0.1794
1.4235,0.0957,0.1486
1.4211,0.0918,0.111
1.4289,0.0918,0.069
1.4323,0.0962,0.0245
1.4382,0.0996,-0.0126
1.447,0.1104,-0.0493
1.4563,0.1177,-0.0844
1.4729,0.1201,-0.1177
1.4846,0.1265,-0.146
1.4886,0.1348,-0.1851
1.49,0.1514,-0.2193
1.4866,0.1637,-0.2432
1.4758,0.172,-0.2769
1.4597,0.1749,-0.3165
1.4328,0.1759,-0.3561
1.405,0.171,-0.3957
1.3707,0.1627,-0.4294
1.338,0.1519,-0.4582
1.3053,0.1343,-0.4812
1.2667,0.1104,-0.4973
1.2237,0.0864,-0.5159
1.1841,0.0674,-0.5276
1.1401,0.0444,-0.5418
1.0957,0.0278,-0.5555
1.0492,0.0082,-0.5667
1.0068,-0.0108,-0.577
0.9604,-0.0235,-0.5872
0.9164,-0.0362,-0.5941
0.8729,-0.0548,-0.5999
0.8352,-0.0617,-0.5838
0.7937,-0.0651,-0.5823
0.7547,-0.0768,-0.5765
0.7189,-0.09,-0.5618
0.6955,-0.1071,-0.5355
0.6779,-0.1227,-0.5027
0.6613,-0.1349,-0.4568
0.6472,-0.1486,-0.4054
0.6344,-0.1667,-0.3522
0.6295,-0.1735,-0.2911
0.6251,-0.1789,-0.2242
0.631,-0.1838,-0.1543
0.6491,-0.1784,-0.0844
0.6686,-0.1721,-0.0234
0.6906,-0.1662,0.0304
0.7155,-0.1583,0.091
0.7409,-0.1486,0.1457
0.7615,-0.1378,0.1911
0.7727,-0.1271,0.2263
0.7835,-0.1149,0.2644
0.7947,-0.0983,0.2937
0.8006,-0.0822,0.3147
0.8089,-0.0665,0.3294
0.8108,-0.0534,0.3446
0.8162,-0.0391,0.3465
0.8176,-0.024,0.3451
0.8206,-0.0069,0.3358
0.8225,0.0126,0.3152
0.8294,0.0351,0.2928
0.8299,0.0512,0.2664
0.8303,0.0698,0.2356
0.8391,0.0869,0.196
0.8406,0.1074,0.1584
0.8406,0.1304,0.113
0.8435,0.1494,0.067
0.8504,0.1705,0.0211
0.8538,0.1954,-0.0234
0.8656,0.2179,-0.0639
0.8783,0.2452,-0.1074
0.8958,0.2652,-0.1455
0.9222,0.2882,-0.1861
0.9486,0.3058,-0.2193
0.9819,0.318,-0.2545
1.0151,0.3356,-0.2779
1.0463,0.3473,-0.3009
1.0801,0.3551,-0.3219
1.1113,0.3581,-0.341
1.1396,0.362,-0.3571
1.1645,0.3595,-0.3713
1.1861,0.3586,-0.3781
1.1998,0.3542,-0.3835
1.21,0.3478,-0.3888
1.2203,0.3356,-0.3932
1.2173,0.3278,-0.3888
1.209,0.3185,-0.3776
1.1949,0.299,-0.363
1.167,0.2809,-0.3503
1.1382,0.2633,-0.3351
1.1069,0.2437,-0.3087
1.0757,0.2257,-0.2789
1.0468,0.2076,-0.2476
1.0258,0.1905,-0.2154
1.0053,0.1724,-0.1807
0.9862,0.1558,-0.1475
0.9544,0.1372,-0.1148
0.9281,0.1216,-0.0878
0.9056,0.1055,-0.0571
0.8871,0.0952,-0.0283
0.8675,0.0762,-0.0004
0.8426,0.062,0.025
0.8206,0.0512,0.047
0.7996,0.0366,0.0665
0.7796,0.0229,0.0953
0.762,0.0034,0.1184
0.7414,-0.0035,0.1438
0.7214,-0.0167,0.1687
0.7072,-0.0289,0.1877
0.694,-0.0382,0.2033
0.6877,-0.0435,0.2234
0.674,-0.0479,0.2381
0.6633,-0.0513,0.2512
0.652,-0.0543,0.2639
0.6467,-0.0563,0.2757
0.6374,-0.0534,0.2854
0.6324,-0.0523,0.2888
0.6281,-0.0484,0.2923
0.6256,-0.0445,0.2908
0.6241,-0.0425,0.2898
0.6256,-0.0333,0.2854
0.6324,-0.0201,0.2786
0.6423,-0.0079,0.2762
0.6555,0.0034,0.2649
0.676,0.0175,0.2478
0.6979,0.0322,0.2337
0.716,0.0439,0.218
0.7351,0.0537,0.1984
0.7512,0.062,0.176
0.7654,0.0757,0.1486
0.7805,0.0859,0.1159
0.7918,0.0933,0.09
0.8069,0.0996,0.0582
0.8167,0.1133,0.0309
0.8245,0.1226,0.0104
0.8372,0.1284,-0.0112
0.8534,0.1323,-0.0307
0.8656,0.1411,-0.0478
0.8773,0.1431,-0.0585
0.8929,0.147,-0.0703
0.9076,0.1524,-0.0815
0.9183,0.1548,-0.0834
0.932,0.1612,-0.0874
0.9422,0.1607,-0.0874
0.9535,0.1607,-0.0883
0.9618,0.1597,-0.0844
0.9682,0.1587,-0.0751
0.9789,0.1568,-0.0668
0.9858,0.1533,-0.0537
0.9867,0.1519,-0.0458
0.9945,0.145,-0.0283
0.996,0.1411,-0.0146
0.9916,0.1348,0.0021
0.9887,0.1226,0.0226
0.9897,0.1109,0.0372
0.9843,0.0991,0.0543
0.9862,0.0908,0.0787
0.9897,0.0776,0.1012
0.9858,0.0684,0.1232
0.9828,0.0601,0.1438
0.9877,0.0468,0.1618
0.9887,0.0351,0.1848
0.9862,0.0239,0.2053
0.9843,0.0141,0.22
0.9833,0.0034,0.2366
0.9799,-0.0049,0.2503
0.9784,-0.0157,0.2615
0.9804,-0.0279,0.2742
0.977,-0.0411,0.282
0.9755,-0.0465,0.2971
0.9726,-0.0538,0.303
0.9696,-0.0602,0.3055
0.9687,-0.0602,0.3079
0.9692,-0.0626,0.3098
0.9682,-0.0753,0.3118
0.9628,-0.0758,0.3123
0.9633,-0.0739,0.3084
0.9574,-0.0778,0.3113
0.9579,-0.0773,0.3045
0.9574,-0.0734,0.3011
0.9579,-0.0739,0.3006
0.9565,-0.0734,0.2952
0.9594,-0.0685,0.2903
0.9638,-0.0704,0.2805
0.9696,-0.0656,0.2727
0.9789,-0.0626,0.2674
0.9892,-0.0587,0.2581
1.0033,-0.0538,0.2478
1.017,-0.0479,0.2434
1.0346,-0.0445,0.2298
1.0468,-0.0396,0.2219
1.0654,-0.0342,0.2141
1.082,-0.0279,0.2053
1.1001,-0.0274,0.2014
1.1206,-0.0308,0.197
1.1352,-0.0313,0.1921
1.1504,-0.0303,0.1862
1.1645,-0.0289,0.1814
1.1773,-0.0323,0.1809
1.1905,-0.0328,0.1818
1.2003,-0.0323,0.1809
1.2115,-0.0425,0.1814
1.2242,-0.045,0.1823
1.2261,-0.0494,0.1804
1.2393,-0.0587,0.1872
1.2525,-0.0612,0.1955
1.2589,-0.0646,0.1994
1.2696,-0.0719,0.2117
1.2809,-0.0802,0.2239
1.2936,-0.0836,0.2381
1.299,-0.088,0.2537
1.3068,-0.0924,0.2708
1.3117,-0.0934,0.2874
1.319,-0.0978,0.3128
1.3214,-0.0988,0.3299
1.3253,-0.0968,0.348
1.3346,-0.0919,0.37
1.3375,-0.087,0.3885
1.3439,-0.0831,0.4017
1.3493,-0.0783,0.4159
1.3551,-0.0704,0.4301
1.3512,-0.0558,0.4418
1.3449,-0.0425,0.4462
1.3375,-0.023,0.4545
1.3297,0.0068,0.4643
1.3204,0.0297,0.4618
1.3092,0.0532,0.4599
1.2994,0.0762,0.454
1.2921,0.0986,0.4418
1.278,0.1113,0.4203
1.2672,0.126,0.4002
1.2589,0.1358,0.3709
1.2506,0.1455,0.3402
1.2432,0.1558,0.3098
1.234,0.169,0.2747
1.2315,0.1807,0.2425
1.2261,0.1954,0.2043
1.2252,0.2154,0.1667
1.2266,0.2242,0.1247
1.2271,0.2276,0.0807
1.2296,0.2306,0.0358
1.2379,0.2291,-0.0087
1.2491,0.2223,-0.0551
1.2647,0.2091,-0.0986
1.2789,0.1886,-0.1499
1.2936,0.169,-0.1958
1.3078,0.1436,-0.2428
1.3175,0.1148,-0.2848
1.3292,0.0864,-0.3239
1.3327,0.0576,-0.3449
1.3336,0.0278,-0.3732
1.3297,0.0024,-0.3952
1.3248,-0.024,-0.4059
1.3156,-0.0465,-0.4098
1.3029,-0.0636,-0.4089
1.2858,-0.0719,-0.4157
1.2681,-0.0822,-0.4142
1.2471,-0.0875,-0.4064
1.2252,-0.0919,-0.4064
1.1993,-0.0929,-0.401
1.1719,-0.0993,-0.3991
1.1426,-0.0949,-0.3903
1.1152,-0.0949,-0.3849
1.0893,-0.089,-0.3747
1.0654,-0.0846,-0.362
1.0346,-0.0783,-0.3503
1.0092,-0.0753,-0.3395
0.9833,-0.0617,-0.3244
0.9525,-0.0528,-0.3097
0.9207,-0.0386,-0.2975
0.8963,-0.025,-0.2843
0.8587,-0.0113,-0.2745
0.8172,0.0214,-0.2638
0.7825,0.0532,-0.2486
0.7419,0.0855,-0.2398
0.7126,0.1157,-0.2364
0.6916,0.1465,-0.2266
0.676,0.1768,-0.2179
0.6755,0.2086,-0.2144
0.675,0.2389,-0.2071
0.6769,0.2755,-0.1836
0.695,0.3131,-0.1729
0.7097,0.3395,-0.1861
0.7326,0.3639,-0.1914
0.7595,0.3855,-0.1948
0.7898,0.4084,-0.1919
0.8235,0.428,-0.1939
0.8495,0.4514,-0.1958
0.8827,0.4665,-0.1934
0.9178,0.4788,-0.1924
0.95,0.4881,-0.1924
0.9775,0.4993,-0.1895
1.0043,0.5042,-0.1841
1.0248,0.5018,-0.1826
1.039,0.4964,-0.1792
1.0278,0.4827,-0.1817
1.0077,0.4714,-0.1734
0.9941,0.4636,-0.1602
0.9843,0.4446,-0.147
0.9731,0.4216,-0.127
0.9652,0.3982,-0.0991
0.9696,0.3786,-0.0742
0.9804,0.3527,-0.0517
0.9867,0.3224,-0.0322
0.9921,0.2931,-0.0053
1.0048,0.2652,0.0157
1.0151,0.2359,0.0314
1.0234,0.2008,0.0509
1.0336,0.169,0.0685
1.038,0.1358,0.0856
1.0424,0.1089,0.0983
1.0444,0.0791,0.1101
1.0492,0.0488,0.1174
1.0512,0.017,0.1228
1.0571,-0.0084,0.1267
1.064,-0.0338,0.1311
1.0635,-0.0568,0.1301
1.0683,-0.0778,0.1296
1.0683,-0.0973,0.1311
1.0688,-0.1183,0.1276
1.063,-0.1339,0.1188
1.0595,-0.1447,0.1086
1.0517,-0.1539,0.1027
1.0424,-0.1623,0.0875
1.0312,-0.1755,0.0758
1.0224,-0.1843,0.0592
1.0102,-0.1887,0.0441
0.9945,-0.1921,0.0319
0.9819,-0.1955,0.0187
0.9706,-0.2033,0.0099
0.9515,-0.196,0.006
0.95,-0.1906,0.0006
0.953,-0.1809,-0.0034
0.9486,-0.1677,-0.0102
0.9452,-0.1618,-0.0117
0.9383,-0.1564,-0.018
0.9281,-0.153,-0.0224
0.911,-0.1422,-0.0253
0.9007,-0.1408,-0.0214
0.8841,-0.1354,-0.0146
0.868,-0.1281,-0.0117
0.8558,-0.1198,-0.0053
0.8435,-0.1124,0.0006
0.8294,-0.1036,0.0123
0.8211,-0.0895,0.025
0.8079,-0.0787,0.0353
0.7937,-0.0665,0.045
0.784,-0.0553,0.0612
0.7737,-0.0435,0.0729
0.7625,-0.025,0.088
0.7517,-0.0128,0.1002
0.7424,0.0004,0.1179
0.7351,0.0156,0.1315
0.7272,0.0273,0.1428
0.7219,0.0439,0.1496
0.7248,0.0576,0.1628
0.7277,0.0767,0.1672
0.7326,0.0864,0.1721
0.7316,0.0991,0.1755
0.738,0.1104,0.1779
0.7493,0.1206,0.177
0.7571,0.1265,0.1789
0.7649,0.1387,0.176
0.7722,0.1431,0.1706
0.7825,0.1524,0.1696
0.7927,0.1622,0.1652
0.802,0.1666,0.1599
0.8103,0.1768,0.1555
0.8186,0.1812,0.1516
0.822,0.1876,0.1491
0.8269,0.1949,0.1428
0.8343,0.2056,0.1408
0.8401,0.2105,0.1384
0.8401,0.2174,0.1355
0.8479,0.2213,0.1276
0.8524,0.2213,0.1276
0.8524,0.2257,0.1232
0.8519,0.2325,0.1174
0.8529,0.2364,0.1174
0.8553,0.2418,0.113
0.8563,0.2447,0.1041
0.8602,0.2516,0.1007
0.8578,0.255,0.0934
0.8573,0.2574,0.0885
0.8612,0.2633,0.0817
0.8656,0.2668,0.0743
0.8646,0.2707,0.0641
0.8724,0.2731,0.0543
0.8758,0.2746,0.0494
0.8802,0.2711,0.0441
0.8856,0.2716,0.0411
0.89,0.2682,0.0338
0.8949,0.2721,0.0324
0.8978,0.2716,0.0324
0.8998,0.2668,0.028
0.9022,0.2677,0.0299
0.9081,0.2623,0.0324
0.9085,0.2628,0.0324
0.9095,0.2579,0.0377
0.912,0.254,0.049
0.9095,0.2516,0.0597
0.911,0.2447,0.068
0.9159,0.2413,0.0778
0.9164,0.2374,0.0885
0.9139,0.232,0.1062
0.9159,0.2262,0.1218
0.9198,0.2169,0.1315
0.9242,0.212,0.1481
0.9261,0.2042,0.1608
0.932,0.1944,0.1755
0.9383,0.1827,0.1853
0.9437,0.1773,0.2019
0.9432,0.1705,0.2058
0.9461,0.171,0.2132
0.9505,0.1666,0.221
0.9544,0.1676,0.2229
0.9667,0.1729,0.2342
0.9677,0.1651,0.2337
0.9716,0.1661,0.2395
0.974,0.171,0.2405
0.977,0.1685,0.2429
0.9755,0.17,0.2444
0.9775,0.1734,0.2444
0.9799,0.1763,0.2483
0.9804,0.1778,0.2439
0.9779,0.1876,0.24
0.9779,0.1954,0.2381
0.9735,0.1973,0.2356
0.9726,0.2013,0.2327
0.9721,0.2125,0.2298
0.9687,0.2179,0.2312
0.9667,0.2306,0.2317
0.9706,0.2369,0.2366
0.9745,0.2437,0.2429
0.9828,0.2491,0.2488
0.9931,0.2525,0.2517
1.0033,0.2603,0.2605
1.0195,0.2559,0.2649
1.0356,0.2584,0.2664
1.0546,0.2594,0.2713
1.0781,0.255,0.2801
1.1064,0.2506,0.2796
1.1323,0.2472,0.282
1.1641,0.2423,0.2864
1.1934,0.2389,0.284
1.2252,0.2306,0.281
1.2535,0.2262,0.2786
1.2819,0.2213,0.2722
1.3063,0.213,0.2678
1.3317,0.2037,0.2625
1.3551,0.1964,0.2542
1.3776,0.192,0.2473
1.3952,0.1812,0.2464
1.4104,0.1744,0.2395
1.424,0.17,0.2385
1.4382,0.1637,0.2361
1.4509,0.1577,0.2337
1.4514,0.1538,0.2371
1.4514,0.1524,0.2361
1.4533,0.1504,0.241
1.4533,0.1441,0.2449
1.4485,0.1416,0.2503
1.4382,0.1382,0.2522
1.4284,0.1377,0.263
1.4177,0.1289,0.2683
1.4104,0.1245,0.2796
1.4001,0.1167,0.2923
1.3928,0.1109,0.3069
1.4016,0.1143,0.3207
1.4001,0.106,0.3314
1.3947,0.0938,0.3363
1.3815,0.0806,0.3373
1.3683,0.0752,0.3392
1.3561,0.0791,0.3333
1.3668,0.083,0.3309
1.3712,0.0796,0.3207
1.3629,0.0791,0.2981
1.358,0.085,0.263
1.3541,0.0894,0.2298
1.3507,0.0957,0.1892
1.3507,0.1055,0.1467
1.3527,0.1104,0.0939
1.3566,0.1182,0.0377
1.3693,0.127,-0.0073
1.384,0.1353,-0.0541
1.4069,0.1421,-0.102
1.4265,0.1485,-0.1455
1.446,0.1602,-0.1939
1.4553,0.1705,-0.2364
1.4597,0.1837,-0.2823
1.4616,0.1949,-0.3268
1.4563,0.1998,-0.3722
1.4445,0.2017,-0.4201
1.4328,0.2032,-0.4494
1.4104,0.1983,-0.4841
1.3928,0.1856,-0.5154
1.3683,0.1793,-0.535
1.3444,0.1685,-0.5496
1.319,0.1533,-0.5638
1.2872,0.1416,-0.5672
1.2423,0.127,-0.5726
1.1998,0.1123,-0.5789
1.1602,0.0996,-0.5799
1.1162,0.0796,-0.575
1.0708,0.0615,-0.5775
1.0287,0.0405,-0.5731
0.9862,0.0253,-0.5643
0.9476,0.0068,-0.5482
0.9066,-0.0074,-0.5207
0.8661,-0.0181,-0.5056
0.8367,-0.0367,-0.49
0.8133,-0.0504,-0.4573
0.7967,-0.0665,-0.423
0.7815,-0.0817,-0.383
0.7688,-0.0929,-0.3356
0.7571,-0.1085,-0.2931
0.7434,-0.1188,-0.2349
0.7326,-0.131,-0.1841
0.7238,-0.1461,-0.1299
0.7185,-0.1579,-0.0732
0.7072,-0.1648,-0.0253
0.6936,-0.1667,0.0201
0.6833,-0.1774,0.0656
0.6721,-0.1853,0.1145
0.6613,-0.1794,0.1525
0.6501,-0.1794,0.1877
0.6324,-0.1721,0.2146
0.6281,-0.1667,0.2415
0.6188,-0.1559,0.2654
0.6095,-0.1398,0.2835
0.6119,-0.1276,0.3059
0.6202,-0.1129,0.3172
0.6246,-0.0978,0.3197
0.6295,-0.0778,0.3167
0.6403,-0.0602,0.3152
0.652,-0.0396,0.304
0.6647,-0.0167,0.2845
0.6774,0.0117,0.2595
0.6872,0.0371,0.2337
0.7028,0.0635,0.2048
0.7165,0.0879,0.1721
0.7341,0.1089,0.1355
0.7566,0.1343,0.0968
0.7776,0.1587,0.0587
0.7981,0.1788,0.0182
0.8172,0.1998,-0.0136
0.8352,0.2252,-0.0522
0.8558,0.2442,-0.0834
0.868,0.2687,-0.1143
0.8861,0.2921,-0.1406
0.9076,0.3092,-0.1738
0.9291,0.3229,-0.1983
0.9461,0.3405,-0.2213
0.9726,0.3527,-0.2384
0.9994,0.3673,-0.2569
1.0278,0.3767,-0.2696
1.0566,0.3855,-0.2784
1.0869,0.3928,-0.2857
1.1118,0.4001,-0.2975
1.1401,0.4094,-0.3102
1.1528,0.4133,-0.3234
1.1685,0.4099,-0.3337
1.1724,0.4075,-0.3385
1.1754,0.4045,-0.3405
1.1734,0.3967,-0.3415
1.1739,0.3874,-0.3332
1.1577,0.3777,-0.3214
1.1421,0.3659,-0.3111
1.125,0.3551,-0.2931
1.1103,0.3341,-0.274
1.0981,0.3195,-0.253
1.0864,0.3087,-0.2354
1.0732,0.2926,-0.2174
1.0649,0.2755,-0.1953
1.0463,0.2623,-0.1738
1.0273,0.2467,-0.1489
1.0107,0.2345,-0.1275
0.9877,0.2149,-0.101
0.9745,0.2017,-0.0747
0.9544,0.1905,-0.0507
0.9378,0.1695,-0.0283
0.9242,0.1593,-0.0043
0.911,0.1465,0.0221
0.8914,0.1323,0.0343
0.8753,0.1216,0.0573
0.8587,0.1133,0.0748
0.845,0.1016,0.087
0.8299,0.0874,0.1066
0.8147,0.0786,0.1276
0.803,0.0664,0.1423
0.7903,0.0562,0.1574
0.7757,0.0458,0.1745
0.7693,0.0317,0.1853
0.7644,0.018,0.1965
0.7571,0.0053,0.2038
0.7547,-0.0084,0.2102
0.7561,-0.0176,0.2151
0.7571,-0.023,0.2146
0.7595,-0.0362,0.2161
0.7683,-0.0489,0.2146
0.7737,-0.0548,0.2122
0.781,-0.0646,0.2067
0.7893,-0.0695,0.1999
0.8001,-0.0714,0.1945
0.8103,-0.0719,0.1877
0.822,-0.0802,0.1804
0.8308,-0.0836,0.1721
0.8377,-0.0875,0.1662
0.8357,-0.0861,0.154
0.8426,-0.09,0.1457
0.8484,-0.0856,0.1389
0.8509,-0.0836,0.1306
0.8548,-0.0807,0.1242
0.8587,-0.0768,0.1203
0.8626,-0.0763,0.1184
0.8714,-0.0709,0.1164
0.8734,-0.0621,0.1188
0.8763,-0.0597,0.1193
0.8783,-0.0538,0.1228
0.8841,-0.0484,0.1252
0.89,-0.0401,0.1296
0.8978,-0.0377,0.135
0.9046,-0.0289,0.1403
0.9076,-0.0206,0.1467
0.909,-0.0162,0.1555
0.9139,-0.0137,0.1594
0.9168,-0.0079,0.1682
0.9212,-0.0084,0.176
0.9178,-0.004,0.1755
0.9251,0.0019,0.1779
0.9242,0.0078,0.1862
0.9247,0.0117,0.1877
0.9271,0.0112,0.1882
0.9242,0.0117,0.1906
0.9203,0.0131,0.1906
0.9193,0.017,0.1931
0.9188,0.017,0.1936
0.9164,0.0146,0.1945
0.9178,0.0185,0.1901
0.9212,0.0209,0.195
0.9188,0.02,0.1911
0.9154,0.0234,0.1931
0.9193,0.0219,0.195
0.9207,0.0283,0.1887
0.9188,0.0278,0.1892
0.9237,0.0288,0.1906
0.9247,0.0307,0.1926
0.9291,0.0283,0.1999
0.931,0.0258,0.2038
0.9315,0.0229,0.2156
0.932,0.0253,0.2205
0.9378,0.019,0.2273
0.9354,0.017,0.2342
0.9364,0.0073,0.2429
0.9393,0.0048,0.2532
0.9461,0.0048,0.262
0.9505,-0.0045,0.2683
0.952,-0.0084,0.2815
0.951,-0.0079,0.2884
0.9569,-0.0108,0.2928
0.9667,-0.0245,0.2962
0.9721,-0.0259,0.2976
0.9828,-0.022,0.2928
0.995,-0.0264,0.2913
1.0107,-0.0245,0.2849
1.0273,-0.0284,0.2718
1.0463,-0.0235,0.2595
1.0732,-0.0191,0.2425
1.0996,-0.0157,0.2312
1.1294,-0.0108,0.2136
1.1587,0.0009,0.197
1.188,0.0078,0.1809
1.2154,0.0078,0.1657
1.2374,0.0136,0.1511
1.2647,0.019,0.1335
1.2858,0.0234,0.1242
1.3029,0.0278,0.114
1.3185,0.0278,0.1071
1.3331,0.0283,0.1071
1.3395,0.0268,0.1062
1.3502,0.0327,0.113
1.3502,0.0356,0.114
1.3527,0.0366,0.1262
1.3507,0.0385,0.1403
1.3502,0.0385,0.1535
1.3463,0.039,0.1726
1.3356,0.0361,0.195
1.3278,0.0361,0.2161
1.3204,0.0351,0.2332
1.3107,0.0322,0.2527
1.3043,0.0312,0.2752
1.2985,0.0317,0.3015
1.2921,0.0331,0.3211
1.2843,0.0317,0.3407
1.275,0.0361,0.3578
1.2642,0.0375,0.3788
1.2506,0.0444,0.3895
1.2427,0.0552,0.4007
1.2266,0.0654,0.4139
1.2173,0.0796,0.4217
1.2076,0.0869,0.4252
1.2017,0.0977,0.4267
1.191,0.1006,0.4247
1.1827,0.1035,0.4154
1.1788,0.1089,0.409
1.1827,0.1128,0.3944
1.1841,0.1133,0.3846
1.1807,0.1104,0.3685
1.1841,0.1113,0.3456
1.1929,0.106,0.327
1.2047,0.103,0.2942
1.2154,0.1016,0.2586
1.232,0.1025,0.2176
1.2471,0.0986,0.1731
1.2598,0.0938,0.1228
1.2686,0.0923,0.0651
1.2789,0.0859,0.0104
1.2882,0.0762,-0.0424
1.2946,0.0654,-0.0966
1.296,0.0497,-0.1514
1.2941,0.0302,-0.2085
1.2931,0.0043,-0.2579
1.2794,-0.0294,-0.3087
1.2686,-0.0504,-0.3556
1.2481,-0.0621,-0.3874
1.2159,-0.0709,-0.422
1.1856,-0.0778,-0.4529
1.1582,-0.0783,-0.468
1.1299,-0.0792,-0.4787
1.104,-0.0714,-0.487
1.0801,-0.0621,-0.4827
1.058,-0.0534,-0.4753
1.0346,-0.0416,-0.4685
1.017,-0.0264,-0.4568
0.9975,-0.0049,-0.4455
0.9823,0.0131,-0.4358
0.9643,0.0288,-0.4206
0.9461,0.0463,-0.4103
0.9291,0.064,-0.3932
0.9168,0.0757,-0.3698
0.9081,0.0894,-0.3512
0.8968,0.0986,-0.3356
0.8807,0.1138,-0.3131
0.8612,0.1353,-0.2989
0.8455,0.1568,-0.2809
0.8352,0.1759,-0.2603
0.8201,0.2042,-0.2413
0.826,0.2325,-0.2237
0.8328,0.255,-0.2085
0.8426,0.2799,-0.1914
0.8592,0.3053,-0.1758
0.8763,0.3249,-0.1621
0.8993,0.3449,-0.1421
0.9227,0.359,-0.1328
0.9442,0.3747,-0.1177
0.9701,0.3894,-0.1109
0.998,0.3962,-0.1005
1.0263,0.4026,-0.0825
1.0448,0.4065,-0.0766
1.0649,0.404,-0.0673
1.0664,0.3879,-0.0693
1.0546,0.3782,-0.0664
1.0375,0.3634,-0.059
1.0219,0.3551,-0.0566
1.0033,0.3449,-0.0527
0.9941,0.3297,-0.0449
0.9892,0.3141,-0.0283
0.9887,0.2868,-0.0126
0.996,0.2628,0.0089
1.0058,0.2374,0.026
1.0195,0.2071,0.0455
1.0321,0.1803,0.0719
1.0444,0.1489,0.0958
1.0551,0.1148,0.1174
1.059,0.0864,0.1398
1.059,0.0566,0.1574
1.0571,0.0307,0.175
1.0531,-0.0035,0.1926
1.0546,-0.0352,0.2038
1.059,-0.0538,0.2136
1.0644,-0.0739,0.221
1.0703,-0.0939,0.2278
1.0776,-0.1178,0.2268
1.0859,-0.1403,0.2278
1.0908,-0.151,0.2273
1.0918,-0.1716,0.2215
1.0893,-0.1862,0.22
1.0913,-0.2033,0.2107
1.0937,-0.2209,0.1989
1.0854,-0.2297,0.1916
1.0849,-0.2419,0.1857
1.0796,-0.2556,0.1731
1.0664,-0.2595,0.156
1.0527,-0.261,0.1442
1.0419,-0.2634,0.1267
1.0268,-0.2624,0.1135
1.0136,-0.258,0.0958
1.0019,-0.2551,0.0841
0.9906,-0.2424,0.0758
0.977,-0.2317,0.068
0.9667,-0.2175,0.0558
0.953,-0.2024,0.0416
0.9408,-0.1936,0.0363
0.9227,-0.1818,0.027
0.9017,-0.1672,0.0192
0.8768,-0.1496,0.0099
0.8563,-0.1339,0.0089
0.8367,-0.1207,0.0065
0.8181,-0.0983,0.004
0.7996,-0.0783,0.0021
0.7747,-0.0704,0.0021
0.7625,-0.0548,0.0109
0.7517,-0.0377,0.0148
0.7429,-0.0181,0.0192
0.7287,0.0063,0.0245
0.7155,0.0195,0.0358
0.7082,0.041,0.0402
0.7004,0.0625,0.0436
0.6936,0.0747,0.0582
0.6892,0.0899,0.0651
0.6843,0.1065,0.0719
0.6804,0.124,0.0768
0.6774,0.1382,0.089
0.6823,0.147,0.1022
0.6853,0.1622,0.1115
0.6862,0.1763,0.1218
0.6892,0.1881,0.133
0.694,0.2056,0.1379
0.6979,0.2159,0.1428
0.7062,0.2257,0.1501
0.7126,0.232,0.1545
0.7199,0.2413,0.1613
0.7321,0.2452,0.1667
0.7468,0.2496,0.1696
0.7566,0.2594,0.1682
0.7737,0.2623,0.1731
0.7874,0.2638,0.1735
0.7962,0.2668,0.1774
0.8103,0.2663,0.1774
0.8196,0.2682,0.1755
0.8269,0.2663,0.174
0.8328,0.2658,0.1726
0.8372,0.2668,0.1687
0.8465,0.2633,0.1604
0.8568,0.2618,0.154
0.8602,0.2545,0.1516
0.8631,0.255,0.1496
0.8661,0.252,0.1428
0.8753,0.2516,0.1311
0.8739,0.2472,0.1286
0.8792,0.2486,0.1252
0.8788,0.2418,0.1115
0.8792,0.2384,0.1046
0.8831,0.232,0.0958
0.8895,0.2301,0.0929
0.891,0.2247,0.0817
0.8924,0.2203,0.0743
0.8968,0.2183,0.0656
0.9032,0.2183,0.0607
0.9046,0.2164,0.0553
0.9085,0.2086,0.0499
0.9095,0.2061,0.046
0.9124,0.2081,0.045
0.9095,0.2052,0.0441
0.9076,0.2042,0.0446
0.9066,0.2022,0.0494
0.9027,0.1983,0.0534
0.8939,0.2008,0.0582
0.8954,0.1964,0.0612
0.891,0.1978,0.0724
0.8875,0.1954,0.0797
0.8807,0.1944,0.0905
0.8778,0.1915,0.1052
0.8788,0.192,0.1149
0.8768,0.1876,0.1203
0.87,0.1817,0.1355
0.8641,0.1827,0.1418
0.8621,0.1812,0.154
0.8621,0.1798,0.1589
0.8607,0.1842,0.1716
0.8636,0.1842,0.1838
0.8651,0.1837,0.1906
0.8724,0.192,0.1999
0.889,0.1993,0.2048
0.8988,0.1964,0.2117
0.8944,0.1871,0.2072
0.8841,0.2052,0.2087
0.8983,0.2144,0.218
0.9071,0.2169,0.2215
0.9173,0.2179,0.2171
0.9281,0.2203,0.221
0.9422,0.2198,0.218
0.9476,0.2257,0.2107
0.9579,0.2281,0.2048
0.9667,0.2325,0.1994
0.9706,0.2345,0.1872
0.9755,0.2408,0.1828
0.9838,0.2467,0.1779
0.9848,0.2467,0.1779
0.9916,0.2418,0.1706
1.0063,0.2413,0.1696
1.0155,0.2432,0.1657
1.0282,0.2393,0.1657
1.0395,0.2384,0.1687
1.0625,0.2349,0.1735
1.0801,0.231,0.1726
1.0962,0.2247,0.1799
1.1201,0.2193,0.1862
1.1455,0.2154,0.1906
1.1744,0.2086,0.1965
1.21,0.2027,0.2077
1.2369,0.1944,0.2102
1.2623,0.1876,0.2122
1.2863,0.1832,0.2219
1.3121,0.17,0.2244
1.3341,0.1676,0.2229
1.3551,0.1563,0.2229
1.3771,0.1485,0.2176
1.4025,0.1426,0.2176
1.4192,0.1343,0.2136
1.4328,0.1275,0.2077
1.4494,0.1231,0.2038
1.4577,0.1211,0.2009
1.4655,0.1177,0.1994
1.4699,0.1099,0.197
1.4758,0.1104,0.1975
1.4724,0.106,0.1926
1.4758,0.1045,0.196
1.4763,0.1035,0.1975
1.4748,0.1006,0.2024
1.4758,0.0957,0.2092
1.4792,0.0942,0.2205
1.4753,0.0835,0.2351
1.4636,0.0693,0.2444
1.4548,0.0601,0.2561
1.447,0.0562,0.2757
1.4358,0.0527,0.2937
1.4318,0.0502,0.3157
1.4211,0.0458,0.3377
1.4104,0.0439,0.3465
1.4006,0.0454,0.3563
1.3991,0.0454,0.3548
1.3957,0.0434,0.346
1.3952,0.0414,0.3368
1.3918,0.0444,0.3035
1.3899,0.0454,0.2615
1.3982,0.0483,0.2185
1.4138,0.0566,0.174
1.4323,0.0581,0.1242
1.4489,0.063,0.0734
1.4709,0.0791,0.0197
1.493,0.104,-0.0278
1.5179,0.1216,-0.0712
1.5369,0.1377,-0.1167
1.5535,0.1533,-0.1626
1.5667,0.1729,-0.2075
1.5745,0.1856,-0.2481
1.5701,0.2047,-0.2872
1.5608,0.2096,-0.3205
1.5467,0.2159,-0.36
1.533,0.2188,-0.3947
1.4944,0.2203,-0.423
1.4533,0.2213,-0.4534
1.4157,0.2208,-0.4797
1.3678,0.2164,-0.5012
1.3175,0.214,-0.5178
1.2741,0.2047,-0.5345
1.2286,0.1915,-0.5467
1.1758,0.1807,-0.5545
1.124,0.1671,-0.5579
1.0752,0.1543,-0.5569
1.0258,0.1402,-0.553
0.976,0.127,-0.5457
0.9237,0.1094,-0.5276
0.8705,0.103,-0.5085
0.8225,0.0947,-0.4856
0.7903,0.082,-0.446
0.7517,0.0737,-0.4069
0.716,0.0566,-0.3693
0.6838,0.0463,-0.3268
0.6433,0.0268,-0.2809
0.6134,0.0053,-0.2364
0.5831,-0.0093,-0.1846
0.5509,-0.0294,-0.1294
0.523,-0.0474,-0.0766
0.4991,-0.0592,-0.0273
0.4766,-0.0729,0.0182
0.4634,-0.09,0.0646
0.4537,-0.1046,0.1081
0.4434,-0.1203,0.1511
0.4395,-0.131,0.1853
0.4424,-0.1461,0.2161
0.4498,-0.1535,0.242
0.4537,-0.1569,0.2664
0.462,-0.1618,0.281
0.4805,-0.1648,0.2947
0.5084,-0.1618,0.2971
0.5402,-0.1574,0.2957
0.5763,-0.1544,0.2937
0.6051,-0.1525,0.2815
0.6374,-0.1447,0.2605
0.6662,-0.1388,0.2356
0.695,-0.129,0.2077
0.7243,-0.1193,0.1814
0.7527,-0.1056,0.1457
0.7757,-0.089,0.1086
0.8025,-0.0743,0.0729
0.8181,-0.0563,0.0289
0.8416,-0.0416,-0.0073
0.8592,-0.0211,-0.0375
0.8788,0.0043,-0.0742
0.8963,0.0263,-0.1064
0.9134,0.0502,-0.1411
0.9315,0.0752,-0.1846
0.9515,0.0982,-0.2154
0.9789,0.1231,-0.2398
1.0014,0.1504,-0.2662
1.0307,0.1759,-0.2901
1.0585,0.2042,-0.3087
1.0913,0.2271,-0.3268
1.1269,0.2472,-0.3376
1.1577,0.2721,-0.3512
1.1871,0.2912,-0.3605
1.213,0.3097,-0.3625
1.2374,0.3219,-0.3737
1.2593,0.338,-0.3752
1.2706,0.3547,-0.3717
1.2848,0.3639,-0.3713
1.2946,0.3762,-0.3644
1.2951,0.3811,-0.3547
1.299,0.3874,-0.341
1.3009,0.3977,-0.3249
1.3068,0.4001,-0.3126
1.296,0.3962,-0.2984
1.2819,0.3952,-0.2784
1.2716,0.3962,-0.2613
1.2603,0.385,-0.2408
1.2305,0.3786,-0.2169
1.188,0.3664,-0.2002
1.1465,0.3561,-0.1826
1.1138,0.339,-0.1524
1.0845,0.3219,-0.1235
1.0497,0.3053,-0.0971
1.0146,0.2902,-0.0693
0.9955,0.276,-0.0454
0.9765,0.2608,-0.0204
0.951,0.2447,0.005
0.9305,0.2306,0.0241
0.9168,0.21,0.0519
0.9002,0.1944,0.0734
0.8822,0.1768,0.0949
0.8573,0.1582,0.112
0.8362,0.1416,0.134
0.8172,0.1255,0.154
0.7971,0.1104,0.1716
0.783,0.0962,0.1892
0.7586,0.0791,0.2082
0.7503,0.0615,0.2263
0.738,0.0449,0.2376
0.7194,0.0322,0.2552
0.7136,0.017,0.2644
0.7048,0.0058,0.2757
0.694,-0.0108,0.282
0.6916,-0.0196,0.284
0.6911,-0.0342,0.2874
0.6853,-0.045,0.2913
0.6887,-0.0513,0.2918
0.6887,-0.0656,0.2908
0.6867,-0.0734,0.2815
0.6916,-0.0836,0.2708
0.7004,-0.0929,0.2664
0.7067,-0.0973,0.2591
0.715,-0.1046,0.2473
0.7243,-0.1095,0.2346
0.736,-0.1149,0.2185
0.7355,-0.1154,0.2092
0.7414,-0.1149,0.1955
0.7478,-0.1134,0.1828
0.7571,-0.11,0.174
0.7664,-0.1076,0.1599
0.7727,-0.1066,0.1481
0.7815,-0.0983,0.1398
0.7849,-0.0949,0.1262
0.7971,-0.0914,0.1184
0.8035,-0.0846,0.1081
0.8128,-0.0812,0.1036
0.8196,-0.0743,0.0993
0.8294,-0.0714,0.0973
0.8396,-0.0636,0.0939
0.8484,-0.0577,0.0914
0.8573,-0.0538,0.0944
0.8651,-0.0455,0.0983
0.8734,-0.043,0.0963
0.8871,-0.0416,0.1012
0.8929,-0.0357,0.1091
0.9032,-0.0323,0.1164
0.9144,-0.0298,0.1247
0.9251,-0.0259,0.1359
0.9374,-0.0235,0.1418
0.9452,-0.022,0.1511
0.9491,-0.0225,0.1604
0.9579,-0.0196,0.1618
0.9677,-0.0157,0.175
0.9765,-0.0147,0.1828
0.9804,-0.0152,0.1901
0.9838,-0.0128,0.197
0.9902,-0.0113,0.2038
0.9902,-0.0113,0.2072
0.9965,-0.0093,0.2127
1.0028,-0.0059,0.2185
1.0072,-0.0054,0.2229
1.0092,-0.004,0.2254
1.0102,-0.0054,0.2312
1.0146,-0.0035,0.2327
1.0214,-0.0001,0.2361
1.0219,0.0019,0.241
1.0209,-0.0005,0.2434
1.0238,0.0043,0.2488
1.0273,0.0038,0.2561
1.0234,0.0073,0.2615
1.0219,0.0048,0.2659
1.0263,0.0043,0.2688
1.0248,0.0019,0.2683
1.0229,0.0009,0.2732
1.0204,0.0014,0.2713
1.0175,0.0043,0.2771
1.0116,-0.002,0.2757
1.0077,-0.004,0.2727
1.0004,-0.0054,0.2688
0.9941,-0.0118,0.2698
0.9877,-0.0108,0.2669
0.9823,-0.0147,0.2581
0.9784,-0.0167,0.2493
0.9799,-0.0176,0.2434
0.9809,-0.022,0.2356
0.9838,-0.0235,0.2293
0.9858,-0.0235,0.2195
0.9926,-0.023,0.2166
1.0077,-0.0279,0.2053
1.0238,-0.0211,0.2004
1.0419,-0.0215,0.1872
1.061,-0.025,0.177
1.084,-0.025,0.1672
1.1084,-0.0196,0.156
1.1274,-0.0225,0.1535
1.1558,-0.0196,0.1477
1.1778,-0.0176,0.1457
1.191,-0.0206,0.1423
1.2027,-0.022,0.1472
1.212,-0.0215,0.1506
1.2237,-0.0196,0.1579
1.2261,-0.0152,0.1706
1.2354,-0.0157,0.1843
1.2476,-0.0118,0.1941
1.2501,-0.0098,0.2028
1.253,-0.0123,0.2195
1.2574,-0.0103,0.2327
1.2584,-0.0079,0.2464
1.2642,-0.0079,0.2659
1.2681,-0.0089,0.2854
1.2701,-0.0103,0.303
1.273,-0.0093,0.3236
1.273,-0.0108,0.3426
1.2745,-0.0142,0.3622
1.2824,-0.0113,0.3802
1.2755,-0.0152,0.3998
1.2633,-0.0123,0.4173
1.2589,-0.0113,0.4301
1.251,-0.0054,0.4408
1.2452,0.0019,0.4535
1.2344,0.0175,0.4594
1.2257,0.0385,0.4667
1.2178,0.0493,0.4672
1.21,0.062,0.4574
1.2027,0.0796,0.4501
1.2007,0.082,0.4404
1.1954,0.0903,0.4164
1.192,0.0942,0.391
1.188,0.0942,0.3631
1.1802,0.0903,0.3333
1.1817,0.0869,0.303
1.1856,0.0884,0.2669
1.188,0.0825,0.2342
1.2003,0.0811,0.1936
1.212,0.0772,0.1574
1.2247,0.0732,0.114
1.2442,0.0689,0.0597
1.2608,0.063,0.0055
1.2745,0.063,-0.0419
1.2848,0.0606,-0.0971
1.2907,0.0468,-0.1611
1.3009,0.039,-0.2281
1.3102,0.0229,-0.2843
1.3156,0.0019,-0.3424
1.3195,-0.0152,-0.3996
1.3131,-0.0357,-0.447
1.3004,-0.0484,-0.5007
1.2897,-0.0656,-0.5506
1.2736,-0.0778,-0.5936
1.2525,-0.0807,-0.6185
1.2296,-0.0827,-0.6331
1.2037,-0.0783,-0.6356
1.1719,-0.07,-0.6268
1.1411,-0.0553,-0.6077
1.1216,-0.0406,-0.5794
1.0981,-0.0225,-0.5501
1.0806,-0.0074,-0.512
1.0649,0.0048,-0.4773
1.0541,0.0258,-0.4475
1.0331,0.038,-0.4133
1.0224,0.0566,-0.382
1.0102,0.0703,-0.3488
0.9975,0.0859,-0.3185
0.9823,0.0977,-0.2994
0.9623,0.1128,-0.276
0.9442,0.1323,-0.2535
0.9276,0.1475,-0.2379
0.9076,0.168,-0.2252
0.8885,0.1988,-0.2071
0.8773,0.2208,-0.1919
0.8685,0.2472,-0.1768
0.8607,0.2668,-0.1655
0.8534,0.2907,-0.1494
0.8578,0.3195,-0.125
0.8685,0.3371,-0.1221
0.8831,0.3473,-0.126
0.888,0.359,-0.1231
0.9037,0.3673,-0.1221
0.9193,0.3703,-0.1216
0.9325,0.3767,-0.1211
0.9535,0.3767,-0.1162
0.9716,0.3811,-0.1118
0.9838,0.3796,-0.1044
0.9994,0.3796,-0.101
0.9994,0.3752,-0.0991
0.9892,0.3664,-0.0927
0.9672,0.3547,-0.0942
0.9535,0.3463,-0.0927
0.9383,0.3361,-0.0874
0.9291,0.319,-0.079
0.9266,0.3058,-0.0707
0.9305,0.2863,-0.0585
0.9432,0.2628,-0.039
0.9648,0.2428,-0.0151
0.9906,0.2169,0.0045
1.0107,0.1905,0.0231
1.0297,0.1676,0.046
1.0473,0.1426,0.067
1.062,0.1187,0.0831
1.0806,0.0899,0.0958
1.0933,0.0649,0.1149
1.104,0.0414,0.1281
1.1177,0.0229,0.1374
1.1255,-0.0035,0.1477
1.1313,-0.0347,0.156
1.1445,-0.0543,0.1579
1.1509,-0.0695,0.1584
1.1567,-0.0812,0.1545
1.1587,-0.0924,0.154
1.1621,-0.109,0.1521
1.1695,-0.1246,0.1521
1.166,-0.13,0.1452
1.1655,-0.1378,0.1413
1.1572,-0.1422,0.1306
1.1455,-0.1476,0.1223
1.1318,-0.152,0.1081
1.1118,-0.151,0.0963
1.0893,-0.153,0.0846
1.062,-0.153,0.0719
1.0409,-0.1544,0.0577
1.0175,-0.1554,0.0436
0.9911,-0.1559,0.0372
0.9643,-0.1496,0.0294
0.9525,-0.1403,0.0211
0.9466,-0.1349,0.0123
0.9369,-0.129,0.0084
0.9271,-0.1227,0.0031
0.9227,-0.1178,0.0011
0.9129,-0.11,-0.0009
0.9061,-0.1032,-0.0058
0.8924,-0.0924,-0.0024
0.8734,-0.087,-0.0029
0.8651,-0.0802,-0.0029
0.845,-0.0695,0.007
0.8255,-0.0607,0.0104
0.8113,-0.0523,0.0148
0.7937,-0.0382,0.0284
0.7737,-0.0279,0.0372
0.759,-0.0186,0.0519
0.7414,-0.0005,0.0695
0.7263,0.0068,0.0807
0.7116,0.0229,0.0929
0.7014,0.039,0.1105
0.6945,0.0532,0.1252
0.6882,0.0649,0.1389
0.6862,0.0772,0.1506
0.6828,0.0869,0.1652
0.6813,0.1016,0.1731
0.676,0.1109,0.1809
0.674,0.1177,0.1945
0.673,0.124,0.2024
0.6701,0.1382,0.219
0.6643,0.1426,0.2229
0.6643,0.147,0.2288
0.6682,0.1533,0.2351
0.6672,0.1622,0.2332
0.6755,0.1651,0.239
0.6853,0.1783,0.2385
0.694,0.1734,0.2332
0.6999,0.1778,0.2254
0.7106,0.1803,0.218
0.7194,0.1866,0.2077
0.7321,0.1861,0.1941
0.7434,0.1886,0.1809
0.7493,0.19,0.1701
0.759,0.1934,0.154
0.7683,0.1964,0.1433
0.7781,0.1949,0.135
0.7942,0.192,0.1223
0.8064,0.1915,0.1076
0.8147,0.1861,0.0958
0.8245,0.1856,0.0841
0.8352,0.189,0.0758
0.8416,0.1871,0.068
0.8469,0.1827,0.0617
0.8538,0.1827,0.0529
0.8607,0.1842,0.0485
0.8656,0.1827,0.0436
0.8665,0.1851,0.0426
0.8719,0.1847,0.0416
0.8719,0.1812,0.045
0.8768,0.1807,0.0519
0.8753,0.1798,0.0509
0.8802,0.1817,0.0548
0.8812,0.1783,0.0607
0.8802,0.1788,0.0685
0.8831,0.1749,0.0753
0.8812,0.1749,0.0831
0.8822,0.1778,0.0939
0.8822,0.1754,0.1062
0.8827,0.1715,0.1174
0.8797,0.1705,0.1198
0.8802,0.168,0.135
0.8802,0.1685,0.1442
0.8797,0.1671,0.1579
0.8822,0.1646,0.1643
0.8788,0.1666,0.1716
0.8841,0.1617,0.1784
0.89,0.1548,0.1814
0.8944,0.1597,0.1833
0.89,0.1582,0.1848
0.8939,0.1543,0.1862
0.9066,0.1568,0.1882
0.909,0.1577,0.1857
0.9159,0.1622,0.1867
0.9217,0.1622,0.1794
0.931,0.168,0.1784
0.9408,0.1729,0.1789
0.9417,0.1773,0.1735
0.9496,0.1837,0.1735
0.9589,0.1881,0.174
