accx,accy,accz
1.1619,0.055,0.3528
1.1521,0.0584,0.353
1.1473,0.0638,0.3564
1.1487,0.0633,0.355
1.1536,0.0613,0.3557
1.1641,0.0608,0.352
1.1861,0.0618,0.3491
1.2201,0.0618,0.3476
1.267,0.0586,0.3364
1.2921,0.0467,0.3193
1.3075,0.0357,0.2956
1.3151,0.023,0.266
1.3105,0.0107,0.2235
1.3024,-0.0007,0.1871
1.2953,-0.0076,0.151
1.2836,-0.0125,0.1153
1.2782,-0.0169,0.088
1.2596,-0.022,0.0716
1.2443,-0.0266,0.0718
1.2193,-0.0308,0.0779
1.1878,-0.0335,0.0943
1.1429,-0.0381,0.116
1.1048,-0.0428,0.1312
1.0627,-0.0445,0.1434
1.0185,-0.0476,0.1485
0.9777,-0.0474,0.15
0.9394,-0.0491,0.1351
0.9127,-0.054,0.1114
0.8883,-0.0579,0.0823
0.8644,-0.0665,0.0479
0.8453,-0.0718,0.0076
0.8392,-0.0806,-0.0169
0.8353,-0.0897,-0.0381
0.837,-0.1007,-0.0535
0.8382,-0.1134,-0.0687
0.8375,-0.1314,-0.0799
0.8336,-0.1461,-0.0882
0.828,-0.1688,-0.0972
0.8297,-0.1884,-0.0997
0.8446,-0.226,-0.1026
0.849,-0.2519,-0.0909
0.8578,-0.27,-0.0796
0.8736,-0.2844,-0.0645
0.9027,-0.2927,-0.043
0.9247,-0.2941,-0.0237
0.9469,-0.2878,-0.0046
0.9692,-0.2766,0.0103
0.9943,-0.2587,0.02
1.0278,-0.2289,0.0235
1.0569,-0.2033,0.0235
1.0845,-0.1717,0.0183
1.1155,-0.1397,0.0088
1.146,-0.0955,-0.0117
1.159,-0.0682,-0.0386
1.1695,-0.0425,-0.0696
1.1741,-0.0203,-0.0967
1.1656,-0.001,-0.1234
1.1561,0.0078,-0.1307
1.1407,0.009,-0.1275
1.1121,0.0022,-0.1087
1.0774,-0.0032,-0.0748
1.0241,-0.0239,-0.0147
0.9877,-0.0501,0.0432
0.9494,-0.0787,0.0992
0.9108,-0.1016,0.1463
0.8751,-0.1187,0.1862
0.8565,-0.1287,0.2038
0.8419,-0.1334,0.2113
0.8302,-0.1375,0.2106
0.8267,-0.1361,0.1991
0.827,-0.129,0.1918
0.8238,-0.1251,0.1754
0.8216,-0.1224,0.1576
0.8199,-0.1222,0.1395
0.8174,-0.1197,0.1116
0.8233,-0.1148,0.0936
0.8292,-0.1134,0.0767
0.8358,-0.1143,0.063
0.848,-0.117,0.0523
0.8614,-0.1217,0.0489
0.8717,-0.1246,0.0528
0.8849,-0.1253,0.0611
0.8956,-0.1268,0.0679
0.9061,-0.1292,0.0806
0.9147,-0.13,0.097
0.9161,-0.1292,0.1104
0.9215,-0.1312,0.1324
0.9257,-0.1371,0.1507
0.9252,-0.1427,0.162
0.9215,-0.1485,0.1686
0.9164,-0.1527,0.1708
0.9093,-0.1556,0.1673
0.9027,-0.1622,0.1649
0.8942,-0.1666,0.1593
0.8917,-0.1688,0.1581
0.8883,-0.171,0.1566
0.881,-0.1776,0.1529
0.879,-0.1825,0.1522
0.879,-0.1867,0.1515
0.8768,-0.1864,0.1605
0.8753,-0.1862,0.1717
0.8744,-0.181,0.1818
0.8736,-0.1759,0.1871
0.8749,-0.1698,0.1918
0.8766,-0.1671,0.1932
0.8758,-0.1637,0.1937
0.8763,-0.1639,0.1942
0.8815,-0.1671,0.2023
0.8922,-0.1671,0.2086
0.9108,-0.1713,0.2199
0.9289,-0.1739,0.2318
0.9489,-0.1725,0.2409
0.9701,-0.173,0.2485
0.9868,-0.1722,0.2524
1.0026,-0.1749,0.2482
1.017,-0.1774,0.2431
1.0268,-0.1803,0.2296
1.0317,-0.1871,0.2231
1.0341,-0.1967,0.2206
1.0354,-0.1998,0.2289
1.0361,-0.1998,0.2375
1.0359,-0.1925,0.247
1.0285,-0.1808,0.258
1.0258,-0.172,0.2621
1.0219,-0.1622,0.2617
1.0185,-0.1551,0.2541
1.017,-0.1517,0.2411
1.0144,-0.1459,0.2316
1.0131,-0.15,0.2228
1.0185,-0.1507,0.2209
1.03,-0.1559,0.224
1.0405,-0.1647,0.2338
1.0493,-0.1717,0.247
1.0593,-0.1764,0.2631
1.0674,-0.1818,0.2792
1.0779,-0.1857,0.2976
1.0859,-0.1815,0.3061
1.0969,-0.1766,0.3115
1.1045,-0.1681,0.3088
1.1138,-0.1612,0.2941
1.1294,-0.16,0.2761
1.1438,-0.1715,0.2673
1.1646,-0.1783,0.267
1.1944,-0.181,0.2646
1.2455,-0.1823,0.257
1.2868,-0.1864,0.2424
1.3283,-0.1947,0.2213
1.3535,-0.1998,0.1923
1.3625,-0.2094,0.16
1.3517,-0.2326,0.1402
1.3276,-0.2592,0.1182
1.2899,-0.2873,0.098
1.2462,-0.3137,0.0757
1.1827,-0.3354,0.0432
1.1336,-0.3447,0.0129
1.0801,-0.3454,-0.0137
1.0371,-0.3418,-0.033
0.9736,-0.3325,-0.0674
0.9259,-0.3301,-0.0916
0.8866,-0.3384,-0.1231
0.8473,-0.3305,-0.1595
0.8179,-0.3088,-0.2052
0.805,-0.2685,-0.2314
0.8043,-0.2309,-0.2502
0.8172,-0.1967,-0.2592
0.8333,-0.1581,-0.2614
0.8724,-0.1094,-0.2482
0.9078,-0.0721,-0.2304
0.9433,-0.0393,-0.2108
0.9758,-0.0134,-0.1923
1.007,0.01,-0.1642
1.0263,0.0176,-0.1422
1.0388,0.0213,-0.1165
1.0525,0.0176,-0.0904
1.0637,0.0066,-0.0567
1.0723,-0.0173,-0.0149
1.0764,-0.0472,0.0242
1.0852,-0.0831,0.065
1.0945,-0.1185,0.109
1.1067,-0.173,0.1625
1.1133,-0.2209,0.2035
1.1126,-0.268,0.2336
1.1128,-0.3061,0.2526
1.1138,-0.3323,0.2575
1.1118,-0.3494,0.2524
1.1067,-0.352,0.2304
1.0913,-0.3506,0.1947
1.0762,-0.3418,0.1532
1.0498,-0.3208,0.0977
1.0241,-0.3017,0.0557
0.9999,-0.2832,0.0188
0.9758,-0.2641,-0.0042
0.9504,-0.2362,-0.0183
0.9289,-0.2172,-0.0183
0.9049,-0.1986,-0.0088
0.8856,-0.1837,0.01
0.867,-0.1688,0.0408
0.8565,-0.1551,0.0684
0.8468,-0.1434,0.0928
0.838,-0.1309,0.1153
0.8346,-0.1156,0.1346
0.8277,-0.1016,0.1561
0.827,-0.0901,0.1666
0.8216,-0.0804,0.1725
0.8138,-0.073,0.172
0.8079,-0.0652,0.1598
0.7889,-0.0542,0.1463
0.7769,-0.0464,0.1251
0.7644,-0.0362,0.1038
0.7552,-0.0313,0.0875
0.741,-0.0225,0.0679
0.7398,-0.0159,0.0623
0.7481,-0.0064,0.0638
0.7637,0.0005,0.0738
0.7886,0.0137,0.0938
0.8099,0.0193,0.1102
0.8372,0.0247,0.1302
0.8619,0.0276,0.151
0.8819,0.0276,0.1754
0.8981,0.0279,0.1874
0.9147,0.0237,0.1923
0.9403,0.0173,0.1994
0.9545,0.0083,0.2055
0.9594,-0.0083,0.203
0.9577,-0.0254,0.1974
0.9472,-0.0428,0.1908
0.9369,-0.0608,0.1888
0.9257,-0.085,0.1923
0.9203,-0.0992,0.2018
0.9125,-0.1114,0.2165
0.9139,-0.1226,0.2331
0.9098,-0.1307,0.2467
0.9135,-0.1361,0.2531
0.913,-0.1346,0.2568
0.9311,-0.1356,0.2507
0.9504,-0.1305,0.2421
0.9745,-0.1283,0.2321
0.9955,-0.1234,0.2272
1.0156,-0.1163,0.2248
1.0349,-0.107,0.2233
1.0515,-0.1019,0.2267
1.0701,-0.0921,0.2314
1.0825,-0.0816,0.2355
1.0908,-0.0726,0.2399
1.1001,-0.0623,0.2458
1.1074,-0.0506,0.2511
1.1106,-0.0437,0.2519
1.1096,-0.0376,0.2492
1.1035,-0.032,0.2409
1.0996,-0.03,0.2311
1.0925,-0.0283,0.2245
1.0845,-0.0274,0.213
1.0825,-0.0325,0.2099
1.0852,-0.0413,0.2138
1.0869,-0.0596,0.234
1.0894,-0.0777,0.2617
1.0923,-0.098,0.2929
1.0896,-0.1222,0.3257
1.0974,-0.1524,0.374
1.1148,-0.1722,0.4124
1.1338,-0.1871,0.4544
1.1592,-0.1964,0.5016
1.1768,-0.2038,0.5541
1.1947,-0.2089,0.5863
1.1986,-0.2113,0.6076
1.1944,-0.2113,0.6103
1.1912,-0.2086,0.5944
1.178,-0.1862,0.5414
1.1851,-0.1639,0.4876
1.2218,-0.1463,0.4278
1.2731,-0.1383,0.3564
1.309,-0.15,0.2621
1.3207,-0.1583,0.1913
1.3307,-0.1566,0.1309
1.3334,-0.1417,0.0794
1.33,-0.12,0.0117
1.3332,-0.0862,-0.0577
1.3359,-0.053,-0.1334
1.3222,-0.0176,-0.2138
1.2943,0.009,-0.2883
1.2355,0.0305,-0.3691
1.1768,0.0388,-0.4234
1.1201,0.0454,-0.4617
1.0701,0.0584,-0.4825
1.0195,0.0794,-0.4876
0.9882,0.0941,-0.474
0.9682,0.1092,-0.463
0.9467,0.1094,-0.4498
0.9164,0.0938,-0.4378
0.8783,0.0535,-0.4185
0.8482,0.0171,-0.3955
0.8294,-0.0222,-0.3728
0.8162,-0.0662,-0.3413
0.8045,-0.1229,-0.2961
0.8035,-0.1695,-0.2475
0.8057,-0.2152,-0.1937
0.8155,-0.2609,-0.1253
0.8221,-0.2937,-0.032
0.8443,-0.3254,0.0498
0.8719,-0.3442,0.1361
0.9078,-0.3555,0.215
0.9423,-0.354,0.2758
0.9714,-0.3371,0.3181
0.9914,-0.3181,0.321
1.0012,-0.2905,0.2988
1.0065,-0.2609,0.257
1.0219,-0.2162,0.1903
1.0339,-0.1717,0.1383
1.0434,-0.1302,0.0809
1.0473,-0.0904,0.0291
1.0388,-0.0547,-0.0242
1.0136,-0.0235,-0.0606
0.989,-0.0037,-0.0877
0.9653,0.0073,-0.1094
0.9467,0.0137,-0.1178
0.9313,0.0176,-0.1109
0.9186,0.0147,-0.0933
0.9096,0.0068,-0.0682
0.8983,-0.0086,-0.041
0.8961,-0.0213,-0.0017
0.8937,-0.0364,0.0235
0.8983,-0.0503,0.0484
0.9061,-0.065,0.0635
0.9069,-0.0787,0.0696
0.911,-0.0936,0.0757
0.9122,-0.108,0.0814
0.9269,-0.1256,0.0784
0.9225,-0.1366,0.0777
0.9161,-0.1505,0.0796
0.9096,-0.1612,0.0872
0.8983,-0.1725,0.0945
0.8868,-0.1803,0.1009
0.867,-0.1864,0.1153
0.8426,-0.1913,0.1285
0.8184,-0.1906,0.1397
0.7962,-0.1908,0.1478
0.7776,-0.1867,0.1505
0.7556,-0.1835,0.1507
0.7459,-0.1769,0.1424
0.7437,-0.1717,0.1329
0.7537,-0.1654,0.127
0.7688,-0.16,0.1273
0.7945,-0.1583,0.1346
0.804,-0.1622,0.1471
0.835,-0.1664,0.1625
0.8639,-0.1703,0.1842
0.8822,-0.1766,0.2016
0.8966,-0.1837,0.2306
0.9078,-0.1871,0.2546
0.9205,-0.1886,0.2819
0.9357,-0.1879,0.309
0.9428,-0.191,0.3257
0.9479,-0.191,0.3398
0.9528,-0.1923,0.3491
0.9569,-0.1954,0.3538
0.9621,-0.2038,0.3567
0.9611,-0.2086,0.3481
0.964,-0.2187,0.3459
0.9635,-0.227,0.3408
0.986,-0.2365,0.3459
1.0175,-0.2416,0.3491
1.0398,-0.2487,0.3447
1.0598,-0.2526,0.3396
1.042,-0.2428,0.3152
1.0376,-0.2306,0.3003
1.0547,-0.2072,0.2902
1.0862,-0.173,0.2792
1.1074,-0.1454,0.2524
1.1214,-0.1165,0.2216
1.1162,-0.1082,0.1913
1.1065,-0.1033,0.17
1.0979,-0.107,0.1634
1.0828,-0.1224,0.1805
1.0757,-0.1412,0.2182
1.0696,-0.16,0.2687
1.0532,-0.1813,0.32
1.0432,-0.206,0.3743
1.0432,-0.2279,0.3985
1.0476,-0.2382,0.3992
1.0669,-0.2555,0.3762
1.1008,-0.2739,0.3315
1.1341,-0.2785,0.2875
1.1729,-0.2687,0.2497
1.2206,-0.2636,0.215
1.2577,-0.2604,0.1798
1.2943,-0.2582,0.1329
1.3175,-0.2614,0.1007
1.3324,-0.259,0.0699
1.3386,-0.2531,0.041
1.3251,-0.2433,-0.0002
1.3004,-0.2345,-0.0386
1.2638,-0.2145,-0.088
1.2157,-0.1962,-0.1454
1.1749,-0.1757,-0.2084
1.1341,-0.1498,-0.2893
1.0969,-0.1266,-0.3577
1.0625,-0.1097,-0.4102
1.0359,-0.0899,-0.441
1.0083,-0.0669,-0.4544
0.9887,-0.0476,-0.4329
0.9863,-0.0479,-0.3894
1.0126,-0.0625,-0.3242
1.0385,-0.065,-0.2143
1.0432,-0.0694,-0.1209
1.0454,-0.0853,-0.0279
1.0495,-0.1065,0.0525
1.0515,-0.1217,0.1219
1.0542,-0.128,0.1818
1.0574,-0.1371,0.2135
1.0647,-0.1463,0.2343
1.0701,-0.1551,0.2416
1.0647,-0.1744,0.2404
1.0561,-0.1957,0.2331
1.0483,-0.2155,0.2245
1.0373,-0.2353,0.2138
1.0263,-0.2509,0.2028
1.0129,-0.2687,0.1881
0.9953,-0.2817,0.171
0.9816,-0.2927,0.148
0.966,-0.3007,0.1356
0.9472,-0.3073,0.1214
0.9308,-0.3064,0.1178
0.9174,-0.3056,0.1231
0.9059,-0.3034,0.1297
0.891,-0.2961,0.1424
0.8778,-0.2861,0.1551
0.8629,-0.2746,0.1659
0.8524,-0.2626,0.1757
0.8421,-0.2502,0.1852
0.8316,-0.2353,0.1918
0.8196,-0.2248,0.1989
0.8079,-0.2143,0.2038
0.7979,-0.2089,0.206
0.7938,-0.2003,0.205
0.7916,-0.1915,0.2045
0.7952,-0.1813,0.195
0.8013,-0.1649,0.1837
0.8055,-0.1498,0.1644
0.8106,-0.1336,0.1437
0.8153,-0.1212,0.1302
0.8157,-0.1121,0.1143
0.8143,-0.1021,0.0999
0.8138,-0.0926,0.0955
0.8148,-0.085,0.0963
0.817,-0.0748,0.1014
0.8209,-0.0635,0.1107
0.8265,-0.0515,0.1207
0.8292,-0.0418,0.1295
0.8287,-0.0332,0.138
0.8262,-0.0296,0.1476
0.8211,-0.0249,0.1578
0.8196,-0.0217,0.1681
0.8233,-0.0147,0.1769
0.8209,-0.0034,0.1871
0.8275,0.0037,0.1984
0.8402,0.01,0.2123
0.8485,0.0134,0.2184
0.8541,0.0112,0.2235
0.8575,0.0098,0.2235
0.8573,0.0039,0.2211
0.8568,-0.0022,0.2138
0.858,-0.0046,0.205
0.8619,-0.0086,0.1908
0.8683,-0.0122,0.1779
0.8727,-0.0147,0.159
0.8778,-0.0193,0.1495
0.8905,-0.0222,0.1415
0.902,-0.0227,0.1361
0.9269,-0.0227,0.1319
0.9423,-0.0227,0.1251
0.956,-0.0264,0.118
0.9745,-0.0325,0.1156
1.0039,-0.0337,0.1212
1.0456,-0.0357,0.1295
1.082,-0.0366,0.1412
1.1145,-0.0332,0.1542
1.1478,-0.031,0.1683
1.1859,-0.0195,0.1815
1.2144,-0.0122,0.1891
1.2367,-0.0032,0.1959
1.2535,0.0066,0.2001
1.2665,0.0103,0.2079
1.2604,0.0044,0.2162
1.2337,-0.0129,0.2292
1.1993,-0.0349,0.2465
1.1666,-0.0584,0.2783
1.1353,-0.0823,0.3152
1.126,-0.0987,0.3513
1.1175,-0.1175,0.3814
1.1026,-0.1324,0.4087
1.0745,-0.1517,0.4415
1.0537,-0.1642,0.462
1.0393,-0.1737,0.4862
1.0341,-0.1862,0.4986
1.0368,-0.2038,0.5025
1.0483,-0.2111,0.4891
1.074,-0.1932,0.4644
1.1321,-0.1634,0.4336
1.212,-0.1339,0.399
1.307,-0.1229,0.331
1.372,-0.1214,0.2651
1.4267,-0.1214,0.1954
1.4705,-0.1119,0.1241
1.4971,-0.0931,0.0327
1.4908,-0.0706,-0.0579
1.4673,-0.0464,-0.1678
1.4326,-0.02,-0.2863
1.3784,-0.0039,-0.43
1.3146,0.0066,-0.5316
1.2684,0.0068,-0.611
1.2352,0.012,-0.6679
1.2039,0.0134,-0.7065
1.138,0.0024,-0.7283
1.0669,-0.022,-0.7246
0.998,-0.0445,-0.6921
0.9335,-0.0606,-0.6379
0.8793,-0.0772,-0.5458
0.8739,-0.0867,-0.4517
0.89,-0.1019,-0.3386
0.9125,-0.1226,-0.2091
0.9223,-0.1402,-0.0559
0.9142,-0.1654,0.0503
0.9093,-0.1918,0.1383
0.9115,-0.2206,0.2143
0.9176,-0.2433,0.277
0.9386,-0.2629,0.3254
0.9655,-0.2729,0.3437
0.9912,-0.2741,0.344
1.0102,-0.2712,0.3281
1.0214,-0.2585,0.2775
1.0293,-0.2409,0.2248
1.0366,-0.224,0.1627
1.0349,-0.2028,0.1031
1.0319,-0.1788,0.0464
1.042,-0.1358,0.0022
1.0327,-0.1153,-0.0252
1.0107,-0.1024,-0.0479
0.9806,-0.0916,-0.0691
0.9491,-0.0655,-0.0816
0.9252,-0.0428,-0.0914
0.8978,-0.0217,-0.0906
0.8685,-0.0088,-0.0821
0.8326,-0.0032,-0.0665
0.7832,-0.0059,-0.0498
0.7534,-0.0076,-0.0283
0.728,-0.0151,-0.0049
0.7068,-0.0215,0.0171
0.6843,-0.0393,0.0425
0.6753,-0.0545,0.0586
0.675,-0.0684,0.0733
0.6826,-0.085,0.0845
0.7051,-0.1011,0.0931
0.7236,-0.1138,0.097
0.7422,-0.1305,0.097
0.7564,-0.1559,0.1011
0.7561,-0.1845,0.1065
0.7637,-0.2199,0.1138
0.7796,-0.2411,0.1297
0.7977,-0.2573,0.1437
0.8033,-0.2697,0.162
0.805,-0.2878,0.1803
0.8045,-0.3017,0.1952
0.8079,-0.3125,0.2103
0.8131,-0.3222,0.2221
0.8228,-0.3244,0.2306
0.8258,-0.3213,0.2377
0.8297,-0.3154,0.2389
0.8282,-0.3081,0.2441
0.8233,-0.2961,0.2516
0.8218,-0.2788,0.2575
0.8211,-0.2619,0.269
0.8309,-0.2397,0.2731
0.8414,-0.2182,0.2868
0.867,-0.1942,0.2959
0.89,-0.1783,0.3064
0.9127,-0.1649,0.3115
0.9323,-0.1576,0.3142
0.9562,-0.1507,0.3134
0.9762,-0.1471,0.3105
0.9924,-0.1449,0.3056
1.0163,-0.1422,0.2946
1.0376,-0.1429,0.2844
1.0615,-0.1444,0.2634
1.0767,-0.1468,0.2465
1.0901,-0.152,0.224
1.1004,-0.1605,0.204
1.1143,-0.1776,0.1776
1.1187,-0.1923,0.1671
1.1175,-0.2081,0.1673
1.1162,-0.225,0.1801
1.1123,-0.2414,0.2172
1.1106,-0.2619,0.258
1.1109,-0.2729,0.3117
1.1201,-0.2795,0.3672
1.1324,-0.2783,0.4273
1.1543,-0.2724,0.4918
1.1671,-0.2548,0.5272
1.1666,-0.2279,0.5492
1.1605,-0.1896,0.5504
1.1563,-0.1344,0.5206
1.1609,-0.0811,0.4735
1.1661,-0.0298,0.3997
1.1673,-0.0049,0.31
1.1736,-0.0176,0.192
1.1736,-0.0652,0.1143
1.182,-0.1036,0.0557
1.225,-0.1397,0.0213
1.2799,-0.1766,0.0066
1.3417,-0.224,-0.0083
1.3645,-0.2607,-0.0247
1.364,-0.2966,-0.0501
1.3537,-0.3337,-0.0862
1.3268,-0.3674,-0.14
1.2792,-0.4075,-0.1766
1.2142,-0.4302,-0.214
1.1399,-0.4351,-0.2414
1.064,-0.4097,-0.2477
1.0156,-0.4156,-0.2345
1.0031,-0.4488,-0.2113
0.9921,-0.4801,-0.1857
0.974,-0.5035,-0.1537
0.9328,-0.4835,-0.117
0.9215,-0.4346,-0.096
0.9337,-0.3811,-0.0816
0.964,-0.3401,-0.0716
0.988,-0.3022,-0.0572
0.9968,-0.2631,-0.0454
0.9951,-0.2358,-0.0335
0.998,-0.2011,-0.0186
1.0241,-0.1642,0.0044
1.0776,-0.1156,0.0286
1.1028,-0.0836,0.0379
1.1167,-0.0564,0.0467
1.1199,-0.0398,0.0498
1.1182,-0.0239,0.0518
1.1082,-0.0198,0.0503
1.1026,-0.0315,0.0459
1.0894,-0.0515,0.0352
1.063,-0.076,0.0239
1.0146,-0.1119,0.0142
0.9833,-0.138,0.0139
0.9621,-0.1625,0.0195
0.9406,-0.1808,0.0332
0.9201,-0.1998,0.0591
0.9052,-0.2121,0.0794
0.8856,-0.2184,0.098
0.8602,-0.224,0.1148
0.8184,-0.2248,0.1324
0.7881,-0.2223,0.1405
0.7647,-0.2182,0.1493
0.7468,-0.2147,0.1583
0.7258,-0.2108,0.1664
0.7109,-0.2016,0.1788
0.698,-0.1942,0.1835
0.686,-0.1918,0.1893
0.6789,-0.1859,0.1967
0.6689,-0.1781,0.2072
0.665,-0.1761,0.2245
0.6662,-0.1659,0.2311
0.6755,-0.1568,0.2328
0.6877,-0.1476,0.2213
0.7021,-0.14,0.2035
0.7139,-0.1339,0.1823
0.717,-0.1295,0.1554
0.7236,-0.1287,0.1305
0.7415,-0.1248,0.1031
0.7522,-0.1209,0.0872
0.7625,-0.1156,0.0772
0.7754,-0.1092,0.0726
0.7916,-0.1016,0.0745
0.7928,-0.097,0.0799
0.7967,-0.0997,0.0916
0.7923,-0.1033,0.1104
0.7832,-0.1124,0.1446
0.7681,-0.1275,0.1805
0.7703,-0.141,0.2292
0.7788,-0.1507,0.2873
0.7938,-0.1522,0.3476
0.8253,-0.1483,0.4163
0.8646,-0.1317,0.4576
0.9127,-0.1063,0.4815
0.9684,-0.0726,0.4852
1.0381,-0.0283,0.4644
1.0796,0.0007,0.4307
1.1172,0.0308,0.3845
1.1502,0.0603,0.3354
1.1778,0.086,0.281
1.2108,0.107,0.214
1.2279,0.117,0.1669
1.235,0.1224,0.1231
1.2301,0.1129,0.0831
1.2147,0.0901,0.0503
1.1998,0.0645,0.0369
1.1944,0.0452,0.0327
1.2076,0.0313,0.0418
1.2296,0.0257,0.0706
1.255,0.0193,0.1048
1.265,0.0125,0.1419
1.2589,-0.0068,0.1771
1.2328,-0.0254,0.2157
1.1929,-0.0537,0.2656
1.1695,-0.074,0.3049
1.1534,-0.097,0.343
1.1514,-0.1175,0.375
1.1785,-0.1368,0.4273
1.2081,-0.1583,0.4691
1.2633,-0.1864,0.4964
1.3354,-0.2265,0.4959
1.4175,-0.2643,0.4356
1.4956,-0.2775,0.356
1.5262,-0.268,0.2726
1.5272,-0.2402,0.1766
1.5186,-0.2067,0.064
1.4746,-0.151,-0.0884
1.4287,-0.1036,-0.2177
1.3774,-0.0594,-0.3386
1.3327,-0.0325,-0.4544
1.2706,-0.0156,-0.5758
1.2152,-0.0107,-0.6565
1.1627,-0.0139,-0.7156
1.1106,-0.0259,-0.7554
1.0508,-0.0428,-0.7806
0.9797,-0.0779,-0.7776
0.9254,-0.1099,-0.742
0.8714,-0.1512,-0.6736
0.8399,-0.1888,-0.5675
0.8512,-0.2216,-0.3733
0.8827,-0.2394,-0.1798
0.9125,-0.2492,0.0481
0.9069,-0.2541,0.27
0.8827,-0.2597,0.4925
0.8429,-0.2695,0.6032
0.8226,-0.281,0.6565
0.8106,-0.2915,0.6516
0.8133,-0.3005,0.6022
0.8402,-0.2956,0.4981
0.8763,-0.2839,0.3933
0.9281,-0.2604,0.2773
0.978,-0.226,0.171
1.0324,-0.1735,0.0462
1.0679,-0.1263,-0.0357
1.0815,-0.0738,-0.1087
1.0989,-0.0303,-0.1688
1.0933,0.0076,-0.2301
1.0649,0.0567,-0.2629
1.0522,0.0899,-0.2797
1.0488,0.1121,-0.2841
1.0451,0.1263,-0.2739
1.01,0.1314,-0.2592
0.9577,0.1192,-0.2314
0.913,0.0989,-0.1823
0.8358,0.0596,-0.1302
0.7508,0.0032,-0.065
0.685,-0.0398,-0.0217
0.6286,-0.0718,0.0137
0.5905,-0.0926,0.045
0.5695,-0.1087,0.0765
0.5636,-0.1204,0.0987
0.5793,-0.1309,0.1109
0.6007,-0.1493,0.119
0.6117,-0.1666,0.1187
0.624,-0.1925,0.1136
0.6374,-0.2128,0.1116
0.6523,-0.2321,0.1002
0.6699,-0.2482,0.0853
0.6889,-0.2595,0.0814
0.7129,-0.266,0.0889
0.7429,-0.2631,0.1011
0.7752,-0.2565,0.1151
0.8028,-0.2465,0.1327
0.8348,-0.2309,0.1463
0.8573,-0.2231,0.1588
0.8766,-0.2094,0.1666
0.8993,-0.1881,0.1735
0.9264,-0.1617,0.1808
0.9345,-0.1493,0.1805
0.9303,-0.1393,0.1786
0.9271,-0.1285,0.1708
0.9242,-0.1158,0.1666
0.9274,-0.1031,0.1647
0.9452,-0.0899,0.1735
0.9714,-0.0811,0.1845
0.9946,-0.076,0.202
1.0312,-0.0828,0.2233
1.0564,-0.0994,0.2411
1.0764,-0.12,0.2585
1.0906,-0.1461,0.2773
1.1092,-0.1715,0.3046
1.1306,-0.1994,0.3274
1.1495,-0.2108,0.3476
1.1685,-0.214,0.364
1.1859,-0.2125,0.3743
1.1925,-0.214,0.3726
1.1817,-0.2133,0.3643
1.1583,-0.2223,0.3459
1.125,-0.2372,0.3249
1.0796,-0.2621,0.2968
1.0405,-0.289,0.2829
1.0122,-0.3134,0.2827
0.9968,-0.3335,0.2946
0.996,-0.3447,0.3371
1.008,-0.3513,0.3801
1.0278,-0.3535,0.4263
1.0456,-0.3525,0.4605
1.0586,-0.3496,0.4732
1.0957,-0.3403,0.4715
1.1265,-0.3393,0.4517
1.157,-0.3357,0.4051
1.1917,-0.3283,0.334
1.2308,-0.3244,0.2292
1.2821,-0.3281,0.159
1.3078,-0.3325,0.1033
1.3109,-0.3354,0.063
1.3009,-0.342,0.0171
1.2853,-0.356,-0.0364
1.2665,-0.3582,-0.0777
1.2428,-0.356,-0.1165
1.2127,-0.3408,-0.1627
1.157,-0.32,-0.2272
1.1135,-0.2954,-0.2814
1.0767,-0.268,-0.3411
1.0447,-0.2367,-0.399
1.0146,-0.2018,-0.4654
0.986,-0.1544,-0.5025
0.9745,-0.1151,-0.5253
0.9955,-0.0735,-0.5226
1.0476,-0.0261,-0.4959
1.128,0.0366,-0.4283
1.1856,0.0772,-0.3572
1.2272,0.1014,-0.281
1.2521,0.0975,-0.1986
1.2533,0.0738,-0.1019
1.2408,0.0447,-0.0357
1.2313,0.0068,0.0178
1.2403,-0.031,0.0594
1.2548,-0.0633,0.0909
1.266,-0.0989,0.1092
1.2658,-0.1204,0.106
1.2462,-0.1532,0.097
1.2208,-0.1952,0.0872
1.1607,-0.2431,0.0858
1.0967,-0.2736,0.085
1.0276,-0.3025,0.0889
0.9667,-0.3281,0.0965
0.913,-0.3472,0.1202
0.8604,-0.3628,0.1385
0.8243,-0.3633,0.1566
0.7945,-0.3584,0.17
0.7701,-0.3494,0.1793
0.7356,-0.3318,0.1823
0.7114,-0.3147,0.1788
0.6948,-0.2932,0.1744
0.6809,-0.2717,0.1664
0.6696,-0.2362,0.1495
0.6665,-0.2089,0.1368
0.6721,-0.1813,0.1222
0.6792,-0.1588,0.1075
0.6826,-0.1375,0.0953
0.6894,-0.1136,0.0906
0.6987,-0.096,0.0877
0.7058,-0.0792,0.0921
0.7085,-0.0643,0.0977
0.7192,-0.0457,0.1114
0.7334,-0.0335,0.1182
0.7471,-0.02,0.1258
0.7561,-0.0112,0.1307
0.7698,-0.0051,0.1319
0.7798,-0.0027,0.1287
0.7867,-0.0037,0.12
0.793,-0.0086,0.1104
0.7933,-0.0164,0.0923
0.7896,-0.0279,0.0828
0.7984,-0.0369,0.085
0.8057,-0.0445,0.0987
0.817,-0.0533,0.1202
0.828,-0.0679,0.1507
0.835,-0.0818,0.182
0.8377,-0.0919,0.2128
0.8392,-0.1029,0.2436
0.8441,-0.1082,0.278
0.8534,-0.1104,0.3017
0.8663,-0.1107,0.3227
0.8812,-0.1073,0.3418
0.8966,-0.1016,0.3552
0.9098,-0.0872,0.3591
0.9301,-0.0777,0.3552
0.9389,-0.0669,0.3376
0.9464,-0.0586,0.3125
0.9623,-0.0476,0.2729
0.9819,-0.0454,0.2441
1.01,-0.0401,0.2155
1.0437,-0.0379,0.1957
1.0779,-0.0344,0.1761
1.1309,-0.0391,0.1681
1.17,-0.0398,0.1698
1.2069,-0.0401,0.1823
1.2394,-0.0369,0.1957
1.2733,-0.0369,0.216
1.3017,-0.0388,0.2323
1.319,-0.045,0.2409
1.3158,-0.0442,0.2446
1.2975,-0.041,0.2375
1.2711,-0.0381,0.2292
1.2406,-0.0374,0.2231
1.2032,-0.0366,0.2272
1.1653,-0.0396,0.2487
1.1236,-0.0501,0.2788
1.094,-0.066,0.3169
1.0654,-0.0923,0.354
1.0425,-0.1138,0.388
1.0828,-0.1248,0.4373
1.182,-0.1358,0.4642
1.2951,-0.1634,0.4512
1.372,-0.1964,0.4048
1.4343,-0.2167,0.334
1.4697,-0.2177,0.2827
1.493,-0.2072,0.2221
1.501,-0.1893,0.1363
1.4988,-0.1671,0.022
1.4898,-0.1346,-0.1309
1.4697,-0.1131,-0.2563
1.4358,-0.0938,-0.3716
1.3901,-0.084,-0.4732
1.3014,-0.0625,-0.5714
1.2196,-0.044,-0.6249
1.1382,-0.0242,-0.6525
1.0762,-0.0117,-0.6545
1.0124,-0.01,-0.632
0.9425,-0.021,-0.5939
0.9047,-0.0357,-0.535
0.8829,-0.0574,-0.452
0.8795,-0.0872,-0.3469
0.8815,-0.1305,-0.2072
0.878,-0.1691,-0.0933
0.871,-0.2113,0.0083
0.8793,-0.2514,0.1041
0.8973,-0.2929,0.2008
0.9198,-0.3176,0.2646
0.9435,-0.3332,0.301
0.9633,-0.3433,0.32
0.9721,-0.3459,0.3215
0.9762,-0.3291,0.3005
0.977,-0.3029,0.2682
0.9782,-0.2668,0.2233
0.9731,-0.2306,0.1652
0.956,-0.1764,0.088
0.9384,-0.129,0.0318
0.9323,-0.0884,-0.0107
0.9181,-0.0589,-0.0344
0.8639,-0.0388,-0.0506
0.8145,-0.0269,-0.0533
0.7708,-0.0169,-0.0506
0.7459,-0.0012,-0.0415
0.7483,0.0203,-0.0271
0.7588,0.045,0.0002
0.7613,0.052,0.0342
0.7593,0.0491,0.0706
0.7412,0.0359,0.0987
0.7085,0.0137,0.1185
0.6916,-0.0017,0.1266
0.6968,-0.0129,0.1334
0.717,-0.0208,0.1349
0.7437,-0.03,0.1217
0.7725,-0.0415,0.1014
0.7852,-0.0581,0.0762
0.7859,-0.0836,0.0496
0.784,-0.1148,0.0269
0.7735,-0.1603,0.0149
0.7835,-0.1935,0.023
0.7972,-0.2179,0.0447
0.816,-0.2323,0.0762
0.8394,-0.2438,0.1126
0.8529,-0.2489,0.1363
0.8565,-0.2575,0.1576
0.8553,-0.2651,0.1752
0.8419,-0.2712,0.1994
0.824,-0.2753,0.215
0.8106,-0.2756,0.2287
0.8006,-0.2712,0.2389
0.7925,-0.2631,0.2499
0.7896,-0.2458,0.2597
0.792,-0.2292,0.2651
0.8011,-0.2128,0.2724
0.8131,-0.1964,0.2805
0.8365,-0.1774,0.2934
0.8587,-0.1686,0.2983
0.8863,-0.1573,0.2978
0.9203,-0.1495,0.2883
0.9565,-0.1439,0.2797
0.9948,-0.1422,0.2685
1.0217,-0.1466,0.2631
1.0476,-0.1554,0.2673
1.0701,-0.1637,0.2756
1.0974,-0.1771,0.2849
1.1162,-0.1854,0.2922
1.1346,-0.1886,0.3005
1.1517,-0.1864,0.2983
1.1649,-0.1854,0.2961
1.1758,-0.1837,0.2907
1.1768,-0.1845,0.2919
1.1656,-0.1913,0.2924
1.147,-0.206,0.2907
1.1187,-0.2433,0.2915
1.096,-0.2739,0.2944
1.0767,-0.3066,0.2988
1.0703,-0.3347,0.3144
1.0791,-0.352,0.3535
1.1033,-0.343,0.4012
1.1343,-0.3188,0.4503
1.1568,-0.2851,0.4911
1.1651,-0.2487,0.5189
1.1649,-0.1947,0.517
1.1502,-0.1612,0.4801
1.1495,-0.1307,0.4261
1.1622,-0.1153,0.3579
1.1688,-0.1104,0.2607
1.1766,-0.1085,0.1859
1.1905,-0.1151,0.1219
1.2162,-0.13,0.0726
1.256,-0.1661,0.042
1.2811,-0.2079,0.0347
1.2951,-0.2558,0.0259
1.2882,-0.2971,0.0142
1.2601,-0.3313,0.002
1.2203,-0.3608,-0.0166
1.179,-0.3652,-0.0403
1.1397,-0.3596,-0.0708
1.1018,-0.3437,-0.1102
1.0666,-0.313,-0.1715
1.0302,-0.288,-0.2287
0.9897,-0.2702,-0.2858
0.9433,-0.2524,-0.3342
0.9012,-0.2424,-0.3816
0.87,-0.225,-0.4077
0.8751,-0.2042,-0.4048
0.9127,-0.1754,-0.3738
0.9645,-0.1449,-0.3213
1.0224,-0.1153,-0.2367
1.0605,-0.096,-0.1605
1.0947,-0.0838,-0.0875
1.1226,-0.0757,-0.0178
1.1458,-0.0726,0.0581
1.1619,-0.0708,0.1114
1.1722,-0.0701,0.1527
1.1746,-0.077,0.1786
1.1766,-0.0889,0.1974
1.17,-0.1136,0.2033
1.1573,-0.138,0.2023
1.1463,-0.1681,0.1974
1.1282,-0.1945,0.1986
1.0964,-0.2274,0.1986
1.0647,-0.2489,0.1994
1.0232,-0.2687,0.1986
0.9841,-0.2805,0.1925
0.9303,-0.2905,0.1781
0.8929,-0.2932,0.1649
0.8626,-0.2924,0.1542
0.8316,-0.2851,0.1441
0.8057,-0.2778,0.138
0.7723,-0.2592,0.1251
0.7461,-0.2465,0.1163
0.7256,-0.2318,0.1119
0.7068,-0.2177,0.1158
0.6875,-0.1974,0.1256
0.6767,-0.1796,0.1378
0.6723,-0.1639,0.1512
0.6711,-0.1461,0.1644
0.6699,-0.1287,0.1788
0.6755,-0.1065,0.1886
0.6855,-0.0875,0.1928
0.6924,-0.0723,0.1896
0.7043,-0.0547,0.182
0.7229,-0.0384,0.1673
0.7293,-0.0252,0.1551
0.7385,-0.0154,0.138
0.7349,-0.0149,0.1168
0.7532,-0.0132,0.098
0.7757,-0.0081,0.095
0.7935,-0.0034,0.1004
0.8131,-0.0022,0.1134
0.8336,-0.0083,0.14
0.8495,-0.0178,0.1683
0.8524,-0.0313,0.1981
0.8526,-0.0476,0.2336
0.8499,-0.066,0.2758
0.8487,-0.0982,0.3254
0.8502,-0.1278,0.3621
0.8514,-0.1483,0.3914
0.8602,-0.17,0.4077
0.8707,-0.1793,0.4148
0.8927,-0.1776,0.4085
0.9213,-0.1598,0.3955
0.9572,-0.1331,0.3684
0.9912,-0.1021,0.3305
1.0261,-0.0655,0.2734
1.0522,-0.0381,0.2235
1.0757,-0.0161,0.1761
1.1021,0.0029,0.1388
1.1424,0.0225,0.1165
1.1788,0.0252,0.1153
1.2127,0.0227,0.1236
1.2482,0.0183,0.1449
1.2753,0.009,0.1888
1.2916,-0.0042,0.2316
1.2919,-0.0166,0.269
1.2792,-0.0257,0.3042
1.2584,-0.0366,0.3291
1.2276,-0.0533,0.3391
1.1961,-0.066,0.3379
1.1585,-0.0784,0.3347
1.1226,-0.0916,0.3288
1.0801,-0.1114,0.3232
1.0564,-0.1256,0.3232
1.0422,-0.1429,0.3213
1.0464,-0.1583,0.324
1.082,-0.1478,0.3599
1.178,-0.1273,0.3938
1.2599,-0.1302,0.3887
1.3283,-0.1524,0.3408
1.3838,-0.1737,0.279
1.4395,-0.1786,0.2099
1.4617,-0.1605,0.1444
1.4649,-0.127,0.0589
1.448,-0.0919,-0.042
1.3989,-0.052,-0.1781
1.3466,-0.0296,-0.2805
1.2841,-0.012,-0.3694
1.225,-0.0107,-0.4449
1.1605,-0.0191,-0.5008
1.0818,-0.0291,-0.5446
1.0163,-0.0442,-0.5624
0.9584,-0.066,-0.5592
0.9071,-0.0899,-0.5367
0.8607,-0.12,-0.4747
0.8465,-0.1427,-0.3899
0.8575,-0.1673,-0.2704
0.8732,-0.191,-0.1417
0.889,-0.2121,0.0164
0.9066,-0.2463,0.1317
0.9186,-0.2714,0.2333
0.9262,-0.2949,0.3171
0.9367,-0.3156,0.376
0.9567,-0.3257,0.4119
0.9885,-0.3174,0.3992
1.0153,-0.301,0.3567
1.0412,-0.2822,0.2902
1.0652,-0.2453,0.1994
1.072,-0.2096,0.1307
1.0715,-0.1644,0.0708
1.0676,-0.1116,0.0227
1.063,-0.0625,-0.0149
1.0412,-0.0042,-0.0474
1.0192,0.0366,-0.0613
0.9948,0.0706,-0.0613
0.9587,0.0936,-0.0533
0.9169,0.1104,-0.034
0.8851,0.1094,-0.0132
0.8531,0.109,0.0088
0.8304,0.106,0.0259
0.8077,0.0958,0.041
0.7688,0.0679,0.0457
0.7302,0.034,0.0437
0.696,-0.0005,0.0337
0.6696,-0.0347,0.0232
0.6479,-0.0696,0.0129
0.6389,-0.0933,0.0066
0.6301,-0.1129,0.0002
0.6286,-0.1287,-0.0012
0.6335,-0.1517,0.0046
0.6381,-0.1678,0.0105
0.6538,-0.1788,0.0291
0.6816,-0.1859,0.0559
0.7168,-0.1932,0.0919
0.753,-0.1932,0.1182
0.7715,-0.1994,0.1424
0.7837,-0.2062,0.1622
0.8035,-0.2123,0.1818
0.8204,-0.2174,0.2003
0.8414,-0.2213,0.2047
0.8458,-0.2284,0.2113
0.8543,-0.2289,0.206
0.879,-0.227,0.2006
0.8907,-0.2265,0.1967
0.8956,-0.2257,0.1976
0.9064,-0.2235,0.2035
0.9154,-0.2189,0.2172
0.9333,-0.216,0.2399
0.9438,-0.216,0.2609
0.9543,-0.2128,0.2802
0.9679,-0.2125,0.2937
0.9848,-0.2096,0.2988
0.9948,-0.2079,0.2973
0.9977,-0.2086,0.2919
1.0056,-0.2074,0.2868
1.0109,-0.2047,0.2883
1.0285,-0.1969,0.2897
1.0459,-0.1881,0.2929
1.064,-0.1781,0.2915
1.0833,-0.1622,0.2853
1.1045,-0.139,0.2756
1.1233,-0.1212,0.2678
1.1382,-0.1097,0.2648
1.1446,-0.1011,0.2617
1.1485,-0.1046,0.2658
1.1517,-0.1204,0.2785
1.1561,-0.1402,0.2907
1.1573,-0.1656,0.3029
1.1602,-0.1893,0.32
1.169,-0.2152,0.3423
1.1766,-0.2284,0.3662
1.1859,-0.2338,0.3902
1.1922,-0.2331,0.4055
1.1886,-0.2284,0.4012
1.1717,-0.2191,0.3836
1.1556,-0.2025,0.3579
1.1399,-0.1774,0.3244
1.1331,-0.1671,0.2819
1.1282,-0.1715,0.2514
1.1363,-0.1713,0.2189
1.1583,-0.1686,0.181
1.1934,-0.1749,0.1402
1.2369,-0.2067,0.0858
1.256,-0.245,0.0359
1.2545,-0.2895,-0.0203
1.2425,-0.3335,-0.0779
1.2198,-0.375,-0.1468
1.2039,-0.3948,-0.2008
1.2,-0.4121,-0.2443
1.1871,-0.4197,-0.2761
1.1683,-0.42,-0.3098
1.1302,-0.4002,-0.3318
1.0977,-0.3667,-0.3474
1.0703,-0.3235,-0.3508
1.0522,-0.277,-0.343
1.0366,-0.2165,-0.3176
1.0341,-0.1703,-0.2858
1.041,-0.1268,-0.2409
1.0598,-0.0909,-0.1881
1.085,-0.0464,-0.1234
1.0923,-0.0239,-0.0801
1.0935,-0.0068,-0.0454
1.0842,0.0027,-0.0252
1.0776,-0.0005,-0.0151
1.0754,-0.0164,0.0012
1.0759,-0.0393,0.0117
1.0754,-0.0694,0.0208
1.0723,-0.1036,0.0359
1.0642,-0.1344,0.0579
1.062,-0.1627,0.0743
1.0632,-0.1925,0.0889
1.0576,-0.2226,0.1055
1.0432,-0.2509,0.1256
1.019,-0.28,0.1375
0.9997,-0.2978,0.1571
0.9836,-0.3105,0.1761
0.964,-0.3166,0.1954
0.9396,-0.3159,0.214
0.9169,-0.313,0.2238
0.8846,-0.3059,0.2223
0.8548,-0.2954,0.2157
0.8277,-0.2824,0.2072
0.805,-0.2658,0.1974
0.7796,-0.2514,0.1859
0.761,-0.2372,0.1742
0.741,-0.2182,0.1634
0.7197,-0.1896,0.149
0.7112,-0.1688,0.1373
0.7087,-0.1449,0.1236
0.706,-0.1182,0.1099
0.7065,-0.0899,0.0938
0.7117,-0.0662,0.0906
0.7139,-0.0457,0.0916
0.7192,-0.0293,0.098
0.7275,-0.0166,0.1085
0.7339,0.0012,0.1158
0.7422,0.012,0.1192
0.7398,0.0183,0.1241
0.74,0.0178,0.1283
0.7405,0.0159,0.1375
0.7432,0.0107,0.1439
0.7449,0.0078,0.1432
0.7459,0.0039,0.139
0.7505,0.0007,0.1302
0.7539,-0.0042,0.1241
0.7552,-0.0064,0.1204
0.7478,-0.0078,0.1222
0.7373,-0.0139,0.1336
0.7231,-0.0237,0.1466
0.709,-0.0369,0.1664
0.6931,-0.0484,0.1918
0.6867,-0.0621,0.224
0.7002,-0.0772,0.2673
0.7315,-0.0823,0.3073
0.7869,-0.0787,0.3374
0.8426,-0.0696,0.3528
0.9186,-0.0711,0.3411
0.989,-0.0706,0.3259
1.0593,-0.0721,0.3095
1.1275,-0.0757,0.2983
1.1903,-0.0782,0.2866
1.2633,-0.0789,0.2758
1.3212,-0.0774,0.2712
1.3684,-0.0735,0.2653
1.3984,-0.0708,0.266
1.4253,-0.0708,0.2643
1.4336,-0.0748,0.2602
1.4238,-0.0772,0.256
1.4031,-0.076,0.2497
1.3608,-0.0708,0.2458
1.2997,-0.064,0.2392
1.2577,-0.055,0.237
1.2208,-0.0491,0.2409
1.1817,-0.0459,0.256
1.1377,-0.053,0.2927
1.1106,-0.0625,0.3313
1.0911,-0.0755,0.3779
1.0813,-0.0899,0.4295
1.0977,-0.0889,0.4874
1.1539,-0.0762,0.5128
1.2403,-0.0713,0.5003
1.3373,-0.0836,0.4468
1.393,-0.1055,0.3437
1.4294,-0.1275,0.2692
1.4453,-0.127,0.2035
1.447,-0.1175,0.1263
1.4319,-0.0989,0.03
1.3838,-0.076,-0.1094
1.3293,-0.0589,-0.226
1.2802,-0.0476,-0.3386
1.2372,-0.0435,-0.4336
1.1925,-0.044,-0.524
1.1377,-0.0469,-0.5766
1.0823,-0.0528,-0.6056
1.0224,-0.0696,-0.6176
0.9635,-0.0909,-0.611
0.8883,-0.1131,-0.5683
0.836,-0.1346,-0.5148
0.7979,-0.1532,-0.4424
0.7928,-0.1705,-0.3454
0.8265,-0.1906,-0.2094
0.8563,-0.2042,-0.0938
0.8839,-0.2125,0.0178
0.8978,-0.2209,0.1175
0.9113,-0.2282,0.2118
0.9281,-0.2387,0.2634
0.9489,-0.2487,0.2905
0.9755,-0.258,0.2963
1.007,-0.2614,0.2868
1.0495,-0.2573,0.2499
1.0793,-0.246,0.2074
1.0974,-0.2299,0.1559
1.1082,-0.2084,0.0985
1.1121,-0.1754,0.02
1.1072,-0.1437,-0.0357
1.0986,-0.1099,-0.0821
1.0899,-0.0784,-0.117
1.0828,-0.0484,-0.1292
1.072,-0.0115,-0.1292
1.052,0.011,-0.1082
1.0246,0.0203,-0.0789
0.9929,0.0252,-0.0401
0.9401,0.0213,0.0208
0.8912,0.0127,0.0723
0.8446,-0.0002,0.1219
0.7952,-0.0151,0.1603
0.7481,-0.0276,0.1859
0.7034,-0.0467,0.1989
0.6872,-0.0525,0.2069
0.6775,-0.0552,0.206
0.6633,-0.0601,0.1957
0.6477,-0.065,0.1783
0.6423,-0.0723,0.1627
0.6433,-0.0801,0.1461
0.6447,-0.0821,0.1231
0.6584,-0.0889,0.0967
0.6684,-0.0967,0.0774
0.6701,-0.1099,0.0611
0.6797,-0.1195,0.0491
0.6892,-0.1307,0.0484
0.7158,-0.1437,0.0501
0.7388,-0.1488,0.0669
0.7676,-0.1483,0.0877
0.7898,-0.1468,0.1119
0.8165,-0.1402,0.1412
0.8348,-0.1339,0.163
0.857,-0.1239,0.1869
0.8805,-0.1107,0.2133
0.9012,-0.0977,0.2428
0.9149,-0.0836,0.2626
0.9286,-0.0701,0.2697
0.9374,-0.0574,0.2653
0.9408,-0.0484,0.2477
0.9364,-0.0474,0.2172
0.9328,-0.0542,0.1886
0.9254,-0.0708,0.163
0.9193,-0.0928,0.1468
0.9208,-0.1251,0.1451
0.9298,-0.151,0.1586
0.9491,-0.1747,0.1823
0.9777,-0.1925,0.2045
1.0146,-0.2011,0.2289
1.0691,-0.2042,0.2389
1.1175,-0.2052,0.2448
1.171,-0.2084,0.245
1.224,-0.2135,0.2516
1.2709,-0.2321,0.2629
1.2897,-0.2548,0.2792
1.2841,-0.2919,0.3059
1.2653,-0.3313,0.3376
1.2269,-0.3794,0.3887
1.1929,-0.4349,0.4327
1.1595,-0.473,0.4791
1.1451,-0.493,0.5248
1.1519,-0.4806,0.5629
1.178,-0.4339,0.5829
1.192,-0.3819,0.5741
1.1881,-0.32,0.5426
1.1788,-0.2458,0.4823
1.1758,-0.1739,0.3801
1.1739,-0.1427,0.2917
1.1607,-0.1266,0.2077
1.1546,-0.1134,0.1368
1.1754,-0.1087,0.0794
1.2181,-0.1141,0.0525
1.2465,-0.1351,0.0398
1.2587,-0.1664,0.032
1.2621,-0.2086,0.021
1.2662,-0.2551,0.0017
1.2616,-0.2788,-0.0188
1.2486,-0.2907,-0.0408
1.2213,-0.2883,-0.0662
1.1741,-0.2678,-0.1134
1.1206,-0.2509,-0.1654
1.0527,-0.2292,-0.2213
0.9833,-0.2033,-0.2736
0.9122,-0.1783,-0.3227
0.8411,-0.1419,-0.3655
0.7959,-0.1134,-0.3819
0.7776,-0.087,-0.3775
0.7911,-0.0667,-0.3393
0.8492,-0.0447,-0.2511
0.9076,-0.0344,-0.1598
0.9665,-0.033,-0.066
1.0205,-0.0393,0.0203
1.0732,-0.0498,0.1065
1.126,-0.0672,0.1576
1.158,-0.0801,0.1925
1.1749,-0.0931,0.215
1.1844,-0.1058,0.2233
1.1763,-0.1212,0.2179
1.1563,-0.1407,0.2074
1.1382,-0.1583,0.1871
1.1148,-0.1769,0.1581
1.0789,-0.1962,0.1236
1.0505,-0.2069,0.0992
1.0249,-0.2177,0.0787
1.0036,-0.2238,0.0696
0.9804,-0.227,0.074
0.9411,-0.2282,0.0877
0.9074,-0.2253,0.106
0.8717,-0.2167,0.1292
0.837,-0.2113,0.1571
0.8021,-0.1947,0.1898
0.7727,-0.1805,0.2106
0.752,-0.1691,0.2287
0.7356,-0.1551,0.2362
0.7209,-0.1417,0.2431
0.7092,-0.1248,0.2375
0.7034,-0.1097,0.2255
0.7021,-0.0977,0.2106
0.699,-0.088,0.1888
0.6958,-0.0792,0.162
0.6907,-0.0743,0.1441
0.6885,-0.0708,0.1275
0.6904,-0.0655,0.1141
0.6948,-0.0577,0.0999
0.6948,-0.0559,0.0931
0.7029,-0.0555,0.0965
0.7117,-0.0577,0.1019
0.7258,-0.0643,0.1258
0.7322,-0.0752,0.1432
0.7354,-0.0877,0.1664
0.7422,-0.097,0.1925
0.7451,-0.1109,0.2196
0.7556,-0.1268,0.2526
0.7664,-0.1407,0.2761
0.7764,-0.1551,0.2949
0.7857,-0.1637,0.3061
0.806,-0.1737,0.312
0.8294,-0.1761,0.3115
0.8565,-0.1813,0.3125
0.8802,-0.1793,0.3178
0.9091,-0.1747,0.3227
0.9435,-0.1661,0.3364
0.9638,-0.16,0.3437
1.0046,-0.1495,0.354
1.0613,-0.1307,0.3726
1.125,-0.1119,0.3914
1.1746,-0.0997,0.4009
1.2257,-0.0889,0.4087
1.2733,-0.0777,0.4085
1.3173,-0.0655,0.399
1.361,-0.0442,0.3853
1.3955,-0.0249,0.3689
1.414,-0.0034,0.3474
1.4267,0.0222,0.3174
1.4297,0.0581,0.2758
1.4109,0.0811,0.237
1.3759,0.0992,0.192
1.3295,0.1041,0.1505
1.2589,0.1063,0.1077
1.2149,0.1007,0.0872
1.1839,0.0845,0.0826
1.1573,0.0625,0.1077
1.16,0.0266,0.1634
1.1922,-0.0235,0.2431
1.2589,-0.0577,0.2971
1.3322,-0.0955,0.322
1.3896,-0.129,0.3198
1.4153,-0.1583,0.2719
1.4116,-0.1725,0.1967
1.3965,-0.181,0.0887
1.3679,-0.1805,-0.0342
1.3317,-0.1752,-0.1923
1.2919,-0.1681,-0.3093
1.2675,-0.1691,-0.4134
1.2418,-0.1727,-0.4964
1.2061,-0.1837,-0.5663
1.1458,-0.2008,-0.6252
1.092,-0.2157,-0.644
1.0439,-0.2321,-0.6318
0.9899,-0.2529,-0.5839
0.9169,-0.2807,-0.4754
0.8734,-0.2954,-0.3489
0.849,-0.2995,-0.1898
0.8385,-0.3012,-0.0029
0.8155,-0.2976,0.2455
0.771,-0.2944,0.4104
0.7351,-0.29,0.5275
0.7073,-0.2817,0.591
0.708,-0.2653,0.6015
0.7341,-0.2318,0.5463
0.7659,-0.2003,0.462
0.8001,-0.172,0.354
0.8389,-0.1412,0.2446
0.881,-0.096,0.12
0.9088,-0.0562,0.033
0.9301,-0.0129,-0.0437
0.9467,0.0291,-0.107
0.9574,0.0743,-0.1576
0.9675,0.1268,-0.2143
0.9736,0.1642,-0.2453
0.9811,0.1964,-0.2626
0.9824,0.2238,-0.266
0.956,0.245,-0.2494
0.9235,0.2492,-0.2265
0.8878,0.2438,-0.1893
0.8365,0.2245,-0.1385
0.7769,0.1991,-0.0625
0.7139,0.1532,-0.0064
0.6643,0.1053,0.0379
0.6179,0.0472,0.0716
0.5807,-0.0169,0.0982
0.5548,-0.0943,0.119
0.5563,-0.1522,0.1297
0.5714,-0.2042,0.1388
0.6073,-0.2485,0.141
0.6758,-0.2807,0.1449
0.7461,-0.2915,0.1454
0.8069,-0.2985,0.1358
0.8465,-0.3017,0.1234
0.8761,-0.3112,0.1014
0.8829,-0.3213,0.0814
0.8832,-0.3242,0.0669
0.9276,-0.3198,0.0599
0.9648,-0.3059,0.0772
0.9562,-0.3046,0.1151
0.9381,-0.3095,0.1612
0.9381,-0.302,0.2257
0.9486,-0.2853,0.2907
0.9572,-0.2665,0.3618
0.9543,-0.2465,0.397
0.9555,-0.2299,0.419
0.9609,-0.2086,0.4317
0.9623,-0.1864,0.4292
0.9679,-0.159,0.3936
0.956,-0.1524,0.3618
0.9518,-0.152,0.3171
0.9479,-0.1559,0.2827
0.9574,-0.1603,0.2497
0.9643,-0.1691,0.2384
0.974,-0.1805,0.2421
0.9826,-0.1962,0.2509
0.9963,-0.2103,0.2648
1.0241,-0.2289,0.2748
1.0537,-0.2419,0.279
1.0896,-0.2553,0.28
1.1275,-0.2709,0.2834
1.1678,-0.2937,0.2846
1.1942,-0.3164,0.2905
1.2059,-0.3464,0.2893
1.2035,-0.3804,0.2934
1.1917,-0.4156,0.3215
1.1741,-0.4322,0.3608
1.1646,-0.4444,0.4104
1.1744,-0.4368,0.4581
1.2027,-0.4099,0.4864
1.2311,-0.3547,0.4852
1.2406,-0.3051,0.4591
1.2401,-0.2526,0.4112
1.2386,-0.2135,0.3481
1.2335,-0.1827,0.2592
1.2093,-0.1627,0.1788
1.2042,-0.1459,0.1097
1.2181,-0.1419,0.0579
1.2408,-0.1498,0.0068
1.2411,-0.1671,-0.0322
1.2345,-0.191,-0.0728
1.2225,-0.2103,-0.1129
1.2074,-0.2301,-0.1507
1.1876,-0.2428,-0.195
1.1629,-0.2482,-0.2289
1.1294,-0.2516,-0.2643
1.092,-0.2565,-0.3012
1.051,-0.2448,-0.3371
1.0117,-0.2343,-0.3674
0.9899,-0.2162,-0.3914
0.9894,-0.1876,-0.3953
1.0085,-0.1488,-0.3757
1.0464,-0.0855,-0.343
1.0881,-0.0369,-0.2917
1.1243,0.0134,-0.2296
1.1358,0.0511,-0.1625
1.1243,0.0513,-0.0833
1.1065,0.0217,-0.0283
1.0798,-0.0132,0.0178
1.0608,-0.0489,0.0611
1.0561,-0.0779,0.1104
1.0691,-0.1134,0.1437
1.105,-0.1417,0.1683
1.1324,-0.1717,0.1906
1.1343,-0.2038,0.2001
1.1211,-0.2453,0.1959
1.1004,-0.2783,0.1906
1.074,-0.3064,0.1808
1.0425,-0.3259,0.1676
1.0092,-0.3389,0.1527
0.985,-0.3406,0.1446
0.9584,-0.3369,0.1439
0.922,-0.3305,0.1441
0.8878,-0.3196,0.149
0.8363,-0.3051,0.1586
0.7989,-0.2856,0.1703
0.7647,-0.2687,0.1793
0.7327,-0.2453,0.1849
0.6997,-0.2172,0.1903
0.6714,-0.1918,0.1869
0.6499,-0.1664,0.1823
0.6389,-0.1405,0.171
0.6286,-0.1121,0.1561
0.6227,-0.0884,0.1483
0.6171,-0.0638,0.1446
0.6166,-0.043,0.1449
0.62,-0.0259,0.1512
0.6284,-0.0083,0.1608
0.6362,0.0042,0.1708
0.6442,0.0125,0.1764
0.6596,0.0193,0.1798
0.6704,0.0215,0.1747
0.6743,0.0254,0.1676
0.6838,0.0195,0.1554
0.6958,0.0098,0.1449
0.7153,-0.0054,0.1366
0.7349,-0.0244,0.1378
0.7569,-0.0472,0.141
0.7764,-0.0696,0.1471
0.805,-0.0948,0.1576
0.827,-0.1256,0.1661
0.8399,-0.1517,0.1759
0.8592,-0.1725,0.1947
0.8851,-0.1869,0.2206
0.923,-0.1945,0.2575
0.9587,-0.194,0.2924
1.0048,-0.184,0.324
1.0588,-0.1676,0.3472
1.1179,-0.1432,0.3604
1.1956,-0.109,0.3596
1.2533,-0.0774,0.3496
1.3063,-0.045,0.343
1.3542,-0.0149,0.334
1.4077,0.021,0.3269
1.436,0.0462,0.323
1.4519,0.0674,0.3147
1.4453,0.0774,0.2993
1.4004,0.0745,0.2585
1.3444,0.0611,0.2157
1.2858,0.0501,0.1783
1.2269,0.0428,0.151
1.1749,0.0369,0.1441
1.1197,0.0286,0.1515
1.0747,0.0137,0.1722
1.0381,-0.0076,0.1942
1.008,-0.0327,0.2228
0.9902,-0.0765,0.2636
0.9863,-0.0994,0.3068
1.0339,-0.1053,0.3633
1.1534,-0.0967,0.4102
1.289,-0.0965,0.3926
1.3957,-0.1204,0.3215
1.4536,-0.1222,0.256
1.4949,-0.1146,0.1976
1.5091,-0.0987,0.1268
1.5027,-0.0691,0.0027
1.4724,-0.044,-0.1116
1.4204,-0.0276,-0.2362
1.35,-0.0181,-0.3599
1.2665,-0.0169,-0.4913
1.2064,-0.0183,-0.5736
1.1507,-0.0232,-0.6262
1.0935,-0.0447,-0.6579
1.0393,-0.0745,-0.6709
0.9684,-0.118,-0.6506
0.9066,-0.1598,-0.6049
0.848,-0.2052,-0.5301
0.7991,-0.2467,-0.4295
0.7747,-0.2861,-0.2573
0.7796,-0.3105,-0.0992
0.8018,-0.3247,0.0772
0.8162,-0.3354,0.2414
0.8292,-0.3452,0.4048
0.8458,-0.3472,0.4903
0.8727,-0.3474,0.5345
0.9027,-0.3423,0.5389
0.9384,-0.3279,0.5074
0.9885,-0.3027,0.4297
1.019,-0.2768,0.3501
1.0464,-0.2409,0.2604
1.0676,-0.2001,0.1725
1.0754,-0.1437,0.0623
1.0681,-0.0975,-0.023
1.0596,-0.0496,-0.0994
1.0486,-0.0017,-0.1598
1.0393,0.0425,-0.2121
1.0161,0.0914,-0.236
0.996,0.117,-0.245
0.9687,0.1324,-0.2296
0.9372,0.1417,-0.1969
0.8915,0.1446,-0.1397
0.8443,0.1334,-0.0963
0.8025,0.1114,-0.054
0.7635,0.0911,-0.0134
0.7256,0.0694,0.0244
0.7043,0.0508,0.0418
0.6882,0.03,0.055
0.675,0.0022,0.0623
0.6758,-0.0354,0.0689
0.6699,-0.084,0.0679
0.6667,-0.1138,0.0672
0.6684,-0.1366,0.0655
0.675,-0.149,0.0633
0.6909,-0.1478,0.0577
0.7197,-0.1397,0.0599
0.7476,-0.1358,0.0601
0.7718,-0.1383,0.0608
0.7825,-0.1488,0.0711
0.7832,-0.1688,0.0809
0.7857,-0.1791,0.0909
0.7969,-0.182,0.1002
0.815,-0.1876,0.1129
0.8353,-0.1952,0.1226
0.8433,-0.1986,0.1375
0.8641,-0.2094,0.1512
0.8651,-0.2238,0.1813
0.8722,-0.2304,0.2201
0.8885,-0.2206,0.248
0.9042,-0.2084,0.2734
0.912,-0.2018,0.2937
0.9225,-0.2038,0.3083
0.9291,-0.2091,0.3174
0.9354,-0.2121,0.321
0.9589,-0.2135,0.324
0.989,-0.2155,0.3257
1.0161,-0.2191,0.3188
1.0329,-0.2233,0.3144
1.0503,-0.2279,0.3115
1.0749,-0.2253,0.3073
1.1033,-0.2152,0.3064
1.1226,-0.2072,0.3017
1.1416,-0.1957,0.2946
1.1609,-0.1783,0.2773
1.1722,-0.1622,0.257
1.1707,-0.152,0.2199
1.1563,-0.1608,0.1937
1.125,-0.1813,0.1747
1.0886,-0.2143,0.1725
1.0495,-0.2726,0.195
1.0293,-0.323,0.2299
1.0212,-0.3696,0.2814
1.0222,-0.4075,0.3469
1.042,-0.4319,0.4422
1.0879,-0.4405,0.5128
1.1289,-0.4314,0.5612
1.1673,-0.4048,0.5844
1.2154,-0.3772,0.5844
1.2684,-0.3501,0.5499
1.2958,-0.3247,0.4886
1.3163,-0.2907,0.4019
1.3298,-0.2665,0.3083
1.3359,-0.2543,0.1915
1.3193,-0.2524,0.1126
1.2826,-0.2565,0.034
1.2501,-0.2678,-0.0386
1.2352,-0.2734,-0.1168
1.2228,-0.2639,-0.1627
1.211,-0.2565,-0.2081
1.1653,-0.2453,-0.257
1.1199,-0.2318,-0.3044
1.0662,-0.2216,-0.3691
1.0202,-0.2091,-0.4224
0.9811,-0.1901,-0.4681
0.946,-0.1666,-0.4937
0.9191,-0.1302,-0.4991
0.9296,-0.1016,-0.4688
0.9582,-0.0721,-0.4077
0.9951,-0.0476,-0.3303
1.0344,-0.0332,-0.2431
1.0654,-0.0213,-0.1366
1.092,-0.0195,-0.0552
1.1023,-0.0222,0.0086
1.1004,-0.0232,0.0552
1.1052,-0.0288,0.0877
1.1106,-0.0381,0.1046
1.116,-0.055,0.1114
1.126,-0.0804,0.1156
1.1355,-0.1131,0.1209
1.1512,-0.1539,0.1261
1.1556,-0.1805,0.1273
1.1507,-0.2072,0.1241
1.1372,-0.2345,0.1143
1.1065,-0.2717,0.0945
1.0664,-0.2949,0.0779
1.018,-0.3125,0.0611
0.975,-0.3188,0.0459
0.9301,-0.3095,0.0371
0.9071,-0.2927,0.0391
0.8812,-0.2697,0.0474
0.8551,-0.2419,0.0594
0.8341,-0.2138,0.0757
0.8057,-0.1791,0.0901
0.7828,-0.1542,0.1058
0.7632,-0.1331,0.119
0.7464,-0.1175,0.1331
0.7229,-0.1036,0.1439
0.71,-0.0945,0.1551
0.6992,-0.0931,0.1639
0.6814,-0.0958,0.1749
0.6648,-0.1036,0.1867
0.6523,-0.1124,0.1976
0.6457,-0.1246,0.2077
0.6401,-0.1395,0.2204
0.6389,-0.1517,0.2367
0.6496,-0.1664,0.2541
0.6684,-0.1708,0.2656
0.6948,-0.1793,0.2734
0.7136,-0.1818,0.2761
0.728,-0.1881,0.2739
0.7422,-0.1918,0.2631
0.7476,-0.1901,0.2455
0.76,-0.1896,0.2213
0.7661,-0.1893,0.1881
0.7762,-0.1918,0.1664
0.7852,-0.193,0.1473
0.7938,-0.1901,0.1446
0.8006,-0.1864,0.1466
0.8104,-0.1808,0.1605
0.8214,-0.1759,0.1769
0.8365,-0.1627,0.1962
0.8661,-0.1407,0.2169
0.9171,-0.1058,0.2389
0.9555,-0.0774,0.2516
0.9997,-0.0493,0.2619
1.041,-0.0203,0.2609
1.0969,0.0076,0.2541
1.1673,0.0442,0.245
1.2264,0.0774,0.2392
1.2816,0.1063,0.2318
1.3381,0.1309,0.2318
1.3923,0.1564,0.2428
1.428,0.1627,0.2531
1.4385,0.1581,0.2682
1.4104,0.127,0.2736
1.3002,0.0655,0.2658
1.2198,0.0225,0.2631
1.1636,-0.0059,0.2731
1.1263,-0.0257,0.2871
1.1023,-0.0425,0.3032
1.0688,-0.0655,0.3222
1.0456,-0.0855,0.331
1.0239,-0.1112,0.3369
0.9987,-0.138,0.342
0.967,-0.1678,0.3457
0.9518,-0.1962,0.3428
0.9464,-0.2099,0.3484
0.9887,-0.1893,0.3794
1.0977,-0.1498,0.4266
1.2323,-0.1334,0.4024
1.3224,-0.1339,0.3279
1.4104,-0.1178,0.2648
1.4812,-0.088,0.2169
1.5345,-0.044,0.1593
1.5462,-0.0103,0.0843
1.5262,0.0122,-0.0217
1.4871,0.022,-0.1498
1.3921,0.0081,-0.3254
1.3041,-0.0176,-0.4632
1.2399,-0.0384,-0.5766
1.1827,-0.0535,-0.666
1.1409,-0.0755,-0.7495
1.1043,-0.109,-0.7979
1.0793,-0.1424,-0.8255
1.0486,-0.1803,-0.8277
1.0214,-0.2084,-0.7901
1.0063,-0.2343,-0.674
1.0109,-0.2375,-0.5216
1.0207,-0.2399,-0.3428
1.0246,-0.2494,-0.1502
1.0197,-0.2682,0.0833
1.0131,-0.2844,0.2682
0.9926,-0.2956,0.427
0.9677,-0.3027,0.5431
0.9467,-0.3095,0.6188
0.9286,-0.302,0.6374
0.922,-0.2849,0.5964
0.9254,-0.2617,0.5194
0.9291,-0.2358,0.4156
0.9308,-0.1991,0.2785
0.9284,-0.163,0.1717
0.9208,-0.1234,0.0716
0.9183,-0.0811,-0.0178
0.9203,-0.0327,-0.1116
0.9526,0.032,-0.1598
0.9442,0.0806,-0.2055
0.9367,0.1126,-0.2382
0.9281,0.1385,-0.2492
0.91,0.1551,-0.2431
0.8827,0.1554,-0.2218
0.8473,0.1427,-0.1915
0.8148,0.1278,-0.16
0.7776,0.1019,-0.1173
0.7561,0.074,-0.0928
0.7398,0.043,-0.0689
0.7271,0.0112,-0.044
0.7131,-0.0303,-0.0166
0.7021,-0.0836,0.0046
0.698,-0.1266,0.0288
0.6985,-0.1659,0.0533
0.7034,-0.1932,0.0696
0.7046,-0.2182,0.0853
0.7095,-0.225,0.0865
0.7263,-0.2311,0.0914
0.7466,-0.236,0.098
0.7627,-0.2382,0.1053
0.7801,-0.2409,0.1126
0.783,-0.2455,0.127
0.7762,-0.2504,0.1432
0.7766,-0.2533,0.161
0.7879,-0.2511,0.1791
0.7955,-0.2441,0.1898
0.8113,-0.2343,0.2035
0.8294,-0.2213,0.2108
0.8416,-0.2064,0.2174
0.8514,-0.2016,0.224
0.8622,-0.2001,0.2375
0.8734,-0.1913,0.2438
0.8922,-0.1791,0.2546
0.9125,-0.1676,0.2656
0.9298,-0.1561,0.2731
0.9504,-0.1471,0.28
0.9723,-0.1437,0.2829
0.9933,-0.15,0.2773
0.9973,-0.1695,0.2641
0.9965,-0.1942,0.2526
0.9992,-0.2235,0.2455
1.018,-0.2529,0.2497
1.04,-0.2722,0.2626
1.0649,-0.2866,0.2863
1.0955,-0.291,0.3108
1.1306,-0.2905,0.3442
1.1714,-0.2832,0.3643
1.1959,-0.2792,0.3787
