accx,accy,accz
1.3185,0.2638,0.2136
1.2676,0.2462,0.1784
1.2208,0.232,0.1496
1.1768,0.2115,0.1174
1.1411,0.1925,0.0861
1.1025,0.1705,0.0641
1.0742,0.1528,0.0416
1.0497,0.1362,0.0201
1.0268,0.1187,0.005
1.0019,0.1069,-0.0068
0.9779,0.0923,-0.0165
0.9565,0.0816,-0.0248
0.933,0.0698,-0.0327
0.9178,0.063,-0.0302
0.8998,0.0512,-0.0244
0.8841,0.039,-0.0175
0.8734,0.04,-0.0068
0.8617,0.0292,0.0026
0.8504,0.0195,0.0128
0.8343,0.0092,0.028
0.8196,0.0058,0.0416
0.804,-0.0015,0.0636
0.7869,-0.0079,0.0812
0.7717,-0.0176,0.1041
0.7625,-0.0289,0.1296
0.7459,-0.0347,0.1472
0.7282,-0.0406,0.1633
0.7121,-0.0479,0.1794
0.6984,-0.0494,0.1936
0.6857,-0.0548,0.2009
0.6691,-0.0626,0.2132
0.655,-0.0685,0.2171
0.6374,-0.0665,0.219
0.6217,-0.0748,0.2195
0.6051,-0.0763,0.2195
0.587,-0.0748,0.2171
0.5641,-0.0768,0.2107
0.5533,-0.0797,0.2053
0.5387,-0.0792,0.1911
0.523,-0.0792,0.1833
0.5127,-0.0797,0.1706
0.5025,-0.0783,0.1584
0.4908,-0.0753,0.1447
0.483,-0.0724,0.1311
0.4747,-0.066,0.113
0.4712,-0.0646,0.1007
0.4693,-0.0582,0.0895
0.4678,-0.0508,0.0748
0.4766,-0.0382,0.0636
0.5963,0.0229,0.0983
0.6379,0.0859,0.1291
0.5836,0.0645,0.069
0.569,0.0395,0.0333
0.569,0.0244,0.0055
0.5597,0.0175,-0.0175
0.5538,0.0146,-0.041
0.5489,0.0136,-0.0507
0.5485,0.0112,-0.0546
0.5636,0.0288,-0.0434
0.5973,0.063,-0.0224
0.6349,0.0816,-0.0053
0.6628,0.0884,-0.0019
0.6896,0.0991,0.0045
0.7106,0.1094,0.0031
0.7243,0.1157,0.0035
0.7409,0.1216,0.0074
0.76,0.1235,0.0133
0.7791,0.1284,0.0192
0.7923,0.1275,0.027
0.8045,0.1318,0.0377
0.8181,0.1328,0.046
0.8294,0.1309,0.0563
0.8357,0.1353,0.0646
0.8411,0.1392,0.0758
0.845,0.1372,0.0856
0.8469,0.1397,0.0895
0.8455,0.1431,0.0929
0.8474,0.148,0.1041
0.8411,0.1538,0.1046
0.8377,0.1602,0.1062
0.8347,0.1582,0.1174
0.8245,0.1602,0.1218
0.8147,0.168,0.1228
0.805,0.1724,0.1301
0.7962,0.169,0.1384
0.7815,0.1705,0.1428
0.7654,0.1759,0.1477
0.7522,0.172,0.1545
0.739,0.1646,0.156
0.7243,0.1646,0.1623
0.7062,0.1563,0.1687
0.6921,0.1489,0.1691
0.6735,0.1431,0.1701
0.6613,0.1358,0.1735
0.6447,0.126,0.176
0.6315,0.1187,0.1809
0.6198,0.1094,0.1853
0.608,0.103,0.1911
0.5997,0.0884,0.2014
0.5909,0.0801,0.1994
0.5875,0.0723,0.2072
0.5905,0.063,0.2151
0.5865,0.0606,0.2156
0.5924,0.0581,0.2263
0.5948,0.0566,0.2263
0.6022,0.0576,0.2283
0.609,0.0649,0.2283
0.6163,0.0684,0.2351
0.631,0.0786,0.2366
0.6467,0.0947,0.2425
0.6584,0.1074,0.2464
0.6726,0.1216,0.2444
0.6882,0.1397,0.2469
0.6984,0.1612,0.2498
0.7116,0.1827,0.2532
0.7189,0.2066,0.2595
0.7331,0.2301,0.262
0.7454,0.2467,0.2664
0.7527,0.2638,0.2722
0.761,0.2809,0.2752
0.7688,0.2902,0.2766
0.7761,0.3053,0.2747
0.7776,0.3166,0.2664
0.7752,0.3224,0.2566
0.7761,0.3263,0.2469
0.7761,0.3351,0.2317
0.78,0.3341,0.2141
0.7903,0.3239,0.1916
0.7918,0.3214,0.1691
0.7981,0.3087,0.1394
0.8059,0.3014,0.1081
0.8118,0.2917,0.0729
0.8206,0.2765,0.0358
0.8255,0.2702,0.0016
0.8328,0.2658,-0.0307
0.8421,0.2613,-0.0576
0.8529,0.255,-0.0844
0.8685,0.2491,-0.1148
0.8802,0.2569,-0.1362
0.8988,0.2564,-0.1616
0.9232,0.2545,-0.1856
0.9486,0.252,-0.2144
0.9726,0.2432,-0.2428
0.997,0.2384,-0.2667
1.0258,0.2335,-0.297
1.0531,0.2257,-0.3263
1.0835,0.2154,-0.3512
1.1113,0.2013,-0.3713
1.1465,0.1866,-0.3991
1.1802,0.1676,-0.4196
1.2159,0.1465,-0.4368
1.2457,0.1333,-0.4607
1.2745,0.0952,-0.4802
1.3136,0.0468,-0.5046
1.3331,0.0068,-0.5256
1.36,-0.0342,-0.5511
1.3879,-0.0763,-0.5672
1.406,-0.1173,-0.5833
1.4299,-0.1564,-0.5906
1.4543,-0.1999,-0.5941
1.468,-0.2463,-0.5921
1.4831,-0.2849,-0.5818
1.4655,-0.2512,-0.5672
1.4665,-0.2634,-0.5525
1.4876,-0.3206,-0.529
1.5013,-0.3533,-0.5022
1.4983,-0.3851,-0.4734
1.4895,-0.4037,-0.4568
1.4778,-0.4203,-0.4314
1.4587,-0.4335,-0.4064
1.4416,-0.4413,-0.3776
1.4221,-0.4515,-0.3439
1.4035,-0.4686,-0.3048
1.3923,-0.4804,-0.2662
1.3801,-0.4897,-0.2306
1.3747,-0.5053,-0.1763
1.3673,-0.517,-0.1245
1.3634,-0.5175,-0.0732
1.3585,-0.5121,-0.0258
1.3512,-0.495,0.0236
1.3351,-0.433,0.0773
1.3078,-0.3235,0.1262
1.2985,-0.2287,0.1716
1.3165,-0.1496,0.2136
1.3439,-0.0968,0.2473
1.3801,-0.0435,0.2776
1.4196,0.0121,0.3006
1.4611,0.0596,0.3089
1.4973,0.0967,0.3103
1.5213,0.1353,0.3113
1.5467,0.1666,0.304
1.5706,0.2091,0.2986
1.6,0.2501,0.2928
1.621,0.2834,0.2762
1.6468,0.319,0.2571
1.6649,0.3517,0.2366
1.6982,0.3738,0.2102
1.7314,0.3938,0.1833
1.704,0.4109,0.1213
1.6498,0.3991,0.0387
1.6639,0.4094,0.0074
1.6722,0.4236,-0.0175
1.6766,0.4324,-0.0336
1.6766,0.4372,-0.0463
1.6839,0.4377,-0.0517
1.6903,0.4348,-0.0571
1.7055,0.4255,-0.0624
1.7241,0.407,-0.0673
1.7436,0.3855,-0.0683
1.7543,0.3581,-0.0659
1.7475,0.3175,-0.062
1.7035,0.2642,-0.0546
1.639,0.2149,-0.041
1.5769,0.1788,-0.0234
1.5135,0.1431,-0.0038
1.4499,0.1148,0.0197
1.3918,0.0786,0.0455
1.3366,0.0444,0.0753
1.2882,0.0082,0.1091
1.2452,-0.023,0.1389
1.2066,-0.0534,0.1701
1.1685,-0.0753,0.2053
1.1343,-0.0983,0.2337
1.105,-0.1188,0.2605
1.0723,-0.1369,0.2845
1.038,-0.1549,0.304
1.0112,-0.1735,0.3182
0.975,-0.1872,0.328
0.9417,-0.2033,0.3343
0.9085,-0.2146,0.3397
0.8846,-0.2268,0.3387
0.8636,-0.2356,0.3397
0.8469,-0.2434,0.3294
0.8323,-0.2492,0.3255
0.8176,-0.259,0.3147
0.8054,-0.2614,0.2991
0.7918,-0.26,0.2913
0.7835,-0.2634,0.2742
0.7678,-0.2585,0.2527
0.7449,-0.2561,0.2259
0.7272,-0.2487,0.2033
0.715,-0.2424,0.1823
0.6975,-0.2336,0.1579
0.6828,-0.219,0.135
0.674,-0.2072,0.1115
0.6623,-0.1906,0.0866
0.6511,-0.1691,0.0538
0.6389,-0.1549,0.0275
0.6334,-0.1383,0.0016
0.6271,-0.1227,-0.0224
0.6222,-0.1056,-0.0497
0.6227,-0.0905,-0.0737
0.6246,-0.0739,-0.0922
0.6256,-0.0568,-0.1143
0.6256,-0.0411,-0.1333
0.6305,-0.0196,-0.1548
0.6418,-0.0049,-0.1724
0.6437,0.0029,-0.1753
0.6535,0.02,-0.1792
0.6643,0.0341,-0.1734
0.6706,0.0493,-0.1685
0.6784,0.0606,-0.1582
0.6916,0.0698,-0.1426
0.6975,0.0796,-0.1211
0.7058,0.0923,-0.1005
0.7121,0.104,-0.0776
0.7111,0.1055,-0.0527
0.7131,0.1113,-0.0341
0.7033,0.1074,-0.0136
0.6862,0.1025,0.0001
0.6672,0.103,0.0162
0.6555,0.1001,0.0343
0.6481,0.1006,0.0553
0.6447,0.0991,0.0768
0.6344,0.0938,0.1052
0.6369,0.0913,0.1276
0.6398,0.0923,0.1457
0.6481,0.084,0.1623
0.656,0.0796,0.1735
0.6599,0.0772,0.1838
0.6643,0.0718,0.1906
0.6638,0.0645,0.1936
0.6574,0.0576,0.1926
0.652,0.0478,0.1857
0.6408,0.0429,0.1843
0.6315,0.0366,0.1789
0.6232,0.0331,0.1623
0.6105,0.0253,0.1574
0.5934,0.0224,0.1477
0.5836,0.0161,0.1374
0.5826,0.0078,0.1237
0.5782,0.0034,0.1149
0.5626,-0.0113,0.1017
0.5446,-0.0172,0.0929
0.5333,-0.0279,0.0807
0.5206,-0.0377,0.0773
0.5079,-0.0499,0.0695
0.4966,-0.0617,0.0621
0.4878,-0.0734,0.0626
0.4844,-0.087,0.0646
0.4786,-0.1066,0.0641
0.4581,-0.1276,0.0592
0.4371,-0.1334,0.0558
0.4415,-0.1447,0.0646
0.4454,-0.1618,0.0783
0.4429,-0.177,0.1027
0.4541,-0.1945,0.1223
0.4585,-0.217,0.1384
0.4644,-0.2317,0.1555
0.4688,-0.2522,0.1809
0.48,-0.2678,0.2009
0.4898,-0.2825,0.2219
0.502,-0.2928,0.2439
0.5118,-0.3006,0.263
0.5303,-0.3084,0.2859
0.5416,-0.3074,0.3025
0.5563,-0.3108,0.3128
0.5778,-0.3108,0.3216
0.6036,-0.3094,0.328
0.632,-0.302,0.3329
0.6696,-0.2976,0.3319
0.7053,-0.2923,0.325
0.7419,-0.283,0.3138
0.7781,-0.2766,0.2986
0.8084,-0.2713,0.2771
0.8303,-0.258,0.2547
0.8592,-0.2443,0.2351
0.8792,-0.2317,0.2067
0.9051,-0.2214,0.1721
0.9232,-0.215,0.1335
0.9481,-0.2087,0.088
0.976,-0.2014,0.0367
1.0009,-0.1955,-0.0107
1.0297,-0.1921,-0.0605
1.0635,-0.1857,-0.1143
1.0981,-0.1765,-0.1768
1.1304,-0.1779,-0.2428
1.1695,-0.1613,-0.2984
1.2178,-0.1633,-0.3551
1.2745,-0.175,-0.4176
1.3356,-0.1784,-0.4792
1.3957,-0.1755,-0.5315
1.4597,-0.1711,-0.5877
1.5286,-0.1623,-0.6336
1.5926,-0.1525,-0.6698
1.6581,-0.1427,-0.7001
1.7187,-0.1242,-0.7201
1.7748,-0.0949,-0.7396
1.7431,-0.0719,-0.768
1.6664,-0.066,-0.8418
1.7138,-0.0773,-0.8291
1.7455,-0.0724,-0.792
1.7651,-0.0523,-0.7749
1.7861,-0.0269,-0.75
1.8145,-0.0049,-0.7162
1.8496,0.018,-0.683
1.8901,0.0429,-0.6454
1.9386,0.0625,-0.6053
1.9932,0.0923,-0.5589
2.0431,0.125,-0.5178
2.0856,0.1622,-0.4807
2.1134,0.2135,-0.4485
2.1188,0.2668,-0.427
2.1081,0.3244,-0.4152
2.0666,0.3806,-0.4074
2.003,0.426,-0.4103
1.9342,0.4431,-0.4152
1.8735,0.4236,-0.4196
1.8105,0.4021,-0.4275
1.7392,0.3957,-0.4235
1.6659,0.4001,-0.425
1.5896,0.4216,-0.4275
1.5242,0.4368,-0.422
1.467,0.4465,-0.4167
1.4235,0.4587,-0.4093
1.3928,0.4617,-0.4015
1.3698,0.4617,-0.3791
1.3561,0.4621,-0.3527
1.3693,0.4548,-0.3189
1.3693,0.447,-0.2823
1.3732,0.4407,-0.2501
1.3811,0.4309,-0.2007
1.3972,0.4114,-0.1343
1.4196,0.3894,-0.0654
1.4441,0.3782,0.0094
1.4738,0.3605,0.0861
1.5139,0.3493,0.1726
1.5501,0.3429,0.2464
1.5862,0.3351,0.3192
1.619,0.3322,0.3871
1.6507,0.3307,0.4452
1.6551,0.3239,0.4936
1.641,0.3146,0.5347
1.6327,0.3371,0.5684
1.6146,0.3581,0.5835
1.5965,0.3747,0.5898
1.5686,0.3908,0.583
1.5374,0.405,0.5664
1.5008,0.4221,0.5327
1.4587,0.4333,0.4853
1.4162,0.4436,0.4321
1.3727,0.4504,0.3675
1.3273,0.4592,0.2996
1.2921,0.4685,0.2307
1.2725,0.4646,0.1662
1.2423,0.4494,0.0949
1.1983,0.4319,0.0328
1.1538,0.4128,-0.0131
1.1294,0.3913,-0.0444
1.1832,0.3542,-0.04
1.1645,0.3229,-0.0346
1.1128,0.3117,-0.0707
1.0693,0.2882,-0.0971
1.0312,0.2569,-0.126
0.995,0.2266,-0.1377
0.9594,0.1934,-0.1314
0.9291,0.1661,-0.1123
0.8958,0.1489,-0.0761
0.8661,0.1279,-0.0312
0.8377,0.1001,0.0157
0.8157,0.0742,0.0739
0.7927,0.0493,0.134
0.7713,0.0229,0.198
0.7527,-0.0064,0.2473
0.7419,-0.0259,0.2986
0.7229,-0.0435,0.3368
0.7043,-0.0646,0.369
0.697,-0.0846,0.3929
0.6843,-0.0988,0.4149
0.6755,-0.1154,0.4316
0.6657,-0.1354,0.4438
0.6506,-0.15,0.4452
0.6423,-0.1608,0.4477
0.63,-0.176,0.4374
0.6188,-0.1906,0.4252
0.609,-0.2048,0.3988
0.5988,-0.2116,0.3778
0.5895,-0.215,0.347
0.5822,-0.2214,0.3084
0.5729,-0.2243,0.2708
0.568,-0.2199,0.2278
0.5607,-0.218,0.1818
0.548,-0.2126,0.1345
0.5406,-0.2058,0.0914
0.5372,-0.1833,0.0529
0.5494,-0.1452,0.0172
0.5612,-0.1242,-0.0048
0.568,-0.1119,-0.0371
0.568,-0.0934,-0.0703
0.5616,-0.0841,-0.0996
0.5587,-0.0729,-0.1284
0.5499,-0.0626,-0.1533
0.546,-0.0518,-0.1734
0.5436,-0.046,-0.1817
0.5436,-0.0401,-0.1797
0.5504,-0.0294,-0.1685
0.5509,-0.0225,-0.146
0.5602,-0.0128,-0.1216
0.5719,-0.0128,-0.0893
0.5875,-0.0142,-0.0522
0.6017,-0.0128,-0.0131
0.6139,-0.0113,0.0294
0.6241,-0.0103,0.0748
0.6418,-0.0142,0.1242
0.6535,-0.0123,0.1721
0.6672,-0.0054,0.2141
0.6774,-0.0045,0.2605
0.6887,-0.0001,0.2981
0.7043,0.0063,0.3285
0.717,0.0151,0.3592
0.7326,0.0258,0.3807
0.7478,0.0331,0.3978
0.7659,0.0434,0.4086
0.782,0.0557,0.4144
0.7976,0.0674,0.4115
0.8113,0.0767,0.4051
0.8269,0.084,0.3934
0.8474,0.0938,0.3802
0.8592,0.1021,0.3626
0.8734,0.1109,0.3377
0.8866,0.1172,0.3103
0.8983,0.125,0.2849
0.912,0.1265,0.2566
0.9212,0.1318,0.2293
0.933,0.1333,0.2004
0.9461,0.1406,0.1838
0.955,0.1426,0.1677
0.9544,0.1441,0.153
0.954,0.1514,0.1408
0.956,0.1524,0.1374
0.951,0.1572,0.134
0.9374,0.1617,0.1438
0.9281,0.1646,0.1511
0.9139,0.1724,0.1667
0.8968,0.1778,0.1838
0.891,0.1822,0.2072
0.8773,0.191,0.2293
0.8734,0.1973,0.261
0.8646,0.2013,0.2879
0.8656,0.2022,0.3094
0.8607,0.2096,0.3387
0.8474,0.213,0.3675
0.844,0.2125,0.3944
0.8396,0.2183,0.4252
0.8303,0.2188,0.455
0.8303,0.213,0.4809
0.826,0.2135,0.5063
0.822,0.2086,0.5283
0.8191,0.2008,0.543
0.8206,0.1978,0.5503
0.8142,0.19,0.5542
0.8147,0.1759,0.5474
0.8137,0.1617,0.5332
0.8118,0.1499,0.5151
0.8157,0.1402,0.495
0.8167,0.1328,0.4701
0.8196,0.1152,0.4423
0.826,0.1011,0.4066
0.8294,0.084,0.369
0.8421,0.0674,0.3324
0.8553,0.0488,0.2893
0.869,0.0219,0.2517
0.8875,-0.0064,0.2107
0.9222,-0.0172,0.1823
0.9609,-0.0465,0.1745
0.998,-0.0753,0.1501
1.0253,-0.0939,0.1257
1.04,-0.11,0.1007
1.0674,-0.1159,0.0841
1.0937,-0.1198,0.0768
1.1211,-0.1222,0.0675
1.1372,-0.1144,0.0577
1.1484,-0.1007,0.0621
1.1645,-0.0851,0.0714
1.1827,-0.0626,0.0783
1.1944,-0.0372,0.0875
1.2012,-0.0118,0.091
1.21,0.0092,0.0924
1.2203,0.0322,0.0944
1.2257,0.0532,0.09
1.2423,0.0664,0.091
1.2569,0.084,0.1012
1.2637,0.0903,0.1149
1.2691,0.1016,0.132
1.2716,0.1109,0.1555
1.2681,0.1128,0.1726
1.2613,0.1094,0.1867
1.2476,0.1152,0.2048
1.2203,0.1177,0.2166
1.189,0.1206,0.2176
1.1567,0.1255,0.2102
1.1177,0.1284,0.1857
1.0859,0.1323,0.1447
1.0688,0.1333,0.087
1.0546,0.1362,0.0226
1.0488,0.1343,-0.0312
1.0669,0.1333,-0.0717
1.0874,0.126,-0.1054
1.1074,0.1006,-0.1387
1.1323,0.0801,-0.1651
1.1543,0.063,-0.1885
1.1744,0.0419,-0.2095
1.2017,0.0175,-0.2418
1.2154,-0.0084,-0.2769
1.2134,-0.0362,-0.3141
1.2003,-0.067,-0.3522
1.1939,-0.0885,-0.3918
1.1871,-0.1139,-0.423
1.1895,-0.1403,-0.447
1.1993,-0.1574,-0.47
1.2379,-0.2097,-0.4866
1.2741,-0.2639,-0.5144
1.317,-0.3055,-0.5408
1.3634,-0.3396,-0.576
1.4084,-0.3758,-0.5936
1.4367,-0.3509,-0.6077
1.4558,-0.3152,-0.6224
1.5008,-0.3509,-0.6273
1.5374,-0.3626,-0.619
1.5657,-0.3763,-0.6038
1.5936,-0.3963,-0.5858
1.6229,-0.4086,-0.5599
1.6473,-0.4242,-0.5242
1.6708,-0.4432,-0.4763
1.6991,-0.4671,-0.4304
1.7324,-0.496,-0.3796
1.7636,-0.52,-0.3341
1.7787,-0.5375,-0.2931
1.7924,-0.5517,-0.2628
1.8022,-0.5644,-0.2237
1.8105,-0.5761,-0.1948
1.8179,-0.5834,-0.1621
1.8159,-0.5854,-0.1216
1.8145,-0.5889,-0.0776
1.769,-0.5463,-0.0512
1.6337,-0.4066,-0.0414
1.5574,-0.2947,-0.0195
1.5408,-0.236,0.0123
1.5144,-0.1843,0.0245
1.4616,-0.1295,0.0397
1.4187,-0.0846,0.0494
1.3717,-0.0518,0.0436
1.3165,-0.0308,0.0407
1.2584,-0.0118,0.0241
1.2012,-0.0015,0.007
1.1396,-0.0015,-0.0146
1.0835,-0.0093,-0.0288
1.038,-0.004,-0.0454
1.0014,-0.0005,-0.0605
0.974,0.0019,-0.0742
0.9476,0.0014,-0.0834
0.9237,0.0053,-0.0874
0.91,0.019,-0.0981
0.9051,0.0297,-0.1069
0.9056,0.0429,-0.1187
0.9354,0.0542,-0.1279
0.9643,0.0679,-0.1323
0.9638,0.0869,-0.1631
0.9672,0.1099,-0.1856
0.9838,0.1323,-0.2056
1.0009,0.1509,-0.2369
1.0185,0.172,-0.2555
1.0351,0.1993,-0.2765
1.0497,0.2188,-0.296
1.0635,0.234,-0.3077
1.0776,0.2574,-0.317
1.0869,0.2814,-0.3244
1.1045,0.2941,-0.3249
1.1333,0.2716,-0.3244
1.1538,0.2315,-0.3175
1.1318,0.1925,-0.318
1.0991,0.1524,-0.3121
1.0757,0.1157,-0.2955
1.0644,0.082,-0.2628
1.0635,0.0424,-0.2247
1.0664,-0.003,-0.1724
1.0796,-0.0479,-0.1069
1.0947,-0.0861,-0.0478
1.1196,-0.1256,0.0123
1.1416,-0.1583,0.0778
1.169,-0.1945,0.1335
1.19,-0.2365,0.1906
1.2095,-0.2796,0.2371
1.2291,-0.3094,0.2766
1.2349,-0.3318,0.3128
1.2408,-0.3533,0.3407
1.2379,-0.3655,0.3612
1.2442,-0.3611,0.3817
1.2711,-0.3841,0.3978
1.2691,-0.4071,0.4007
1.254,-0.412,0.3866
1.231,-0.4051,0.3695
1.2095,-0.3949,0.35
1.1719,-0.3807,0.3231
1.1435,-0.3611,0.2835
1.1245,-0.3357,0.2464
1.1235,-0.3108,0.1999
1.1289,-0.2937,0.1594
1.1396,-0.2791,0.1174
1.1484,-0.2566,0.0753
1.1558,-0.2414,0.0328
1.1626,-0.2297,-0.0009
1.1641,-0.2199,-0.0424
1.1572,-0.2053,-0.0771
1.1538,-0.197,-0.1084
1.1411,-0.1833,-0.1406
1.1323,-0.1726,-0.168
1.1211,-0.1608,-0.19
1.1099,-0.152,-0.2061
1.0967,-0.1452,-0.2183
1.0879,-0.1369,-0.2257
1.0796,-0.1339,-0.2247
1.0723,-0.13,-0.2179
1.0669,-0.1232,-0.2114
1.0556,-0.1212,-0.1958
1.0463,-0.1173,-0.1831
1.0351,-0.1105,-0.1611
1.0273,-0.1017,-0.1318
1.0209,-0.0939,-0.104
1.0136,-0.0841,-0.079
1.0077,-0.0753,-0.0551
1.0048,-0.0626,-0.0278
1.0014,-0.0513,-0.0058
1.0038,-0.0421,0.0167
1.0009,-0.0372,0.0387
1.0014,-0.0303,0.0573
0.9945,-0.0225,0.0719
0.9853,-0.0186,0.0861
0.9755,-0.0093,0.089
0.9677,-0.0045,0.0885
0.9609,0.0048,0.0846
0.95,0.017,0.0753
0.9432,0.0239,0.0602
0.9364,0.0297,0.047
0.9354,0.0356,0.025
0.9251,0.0439,0.0109
0.9217,0.0532,-0.0063
0.9134,0.0562,-0.0234
0.9085,0.0635,-0.0375
0.9032,0.064,-0.0551
0.8978,0.0625,-0.0664
0.8949,0.0664,-0.0805
0.89,0.0664,-0.0883
0.8841,0.0708,-0.0961
0.8841,0.0698,-0.104
0.8812,0.0698,-0.102
0.8788,0.0742,-0.1015
0.8846,0.0757,-0.1025
0.8836,0.0796,-0.102
0.8875,0.085,-0.1
0.8929,0.0879,-0.0913
0.8944,0.0859,-0.0844
0.9051,0.0899,-0.08
0.9076,0.0869,-0.0698
0.9115,0.0908,-0.0615
0.912,0.0874,-0.0497
0.911,0.0869,-0.038
0.9154,0.0859,-0.0268
0.9115,0.0869,-0.02
0.9022,0.0767,-0.0102
0.9002,0.0757,-0.0038
0.9007,0.0708,-0.0004
0.888,0.0645,0.0026
0.8709,0.0537,0.0055
0.8543,0.0444,0.0084
0.8426,0.0375,0.0011
0.8235,0.0288,-0.0024
0.805,0.0185,-0.0136
0.781,0.0087,-0.0224
0.7503,-0.0035,-0.0312
0.7321,-0.0103,-0.0444
0.7131,-0.0225,-0.0556
0.6853,-0.0294,-0.0639
0.6603,-0.0342,-0.0712
0.6354,-0.043,-0.0771
0.6158,-0.0494,-0.081
0.5983,-0.0573,-0.0805
0.5743,-0.0587,-0.0786
0.5631,-0.0656,-0.0742
0.5646,-0.068,-0.0546
0.5958,-0.0592,-0.019
0.5548,-0.0646,-0.0165
0.5289,-0.0714,-0.0082
0.5142,-0.0734,0.004
0.4976,-0.0734,0.0143
0.4878,-0.0734,0.0255
0.4834,-0.0695,0.0436
0.4834,-0.0734,0.0607
0.4908,-0.07,0.0763
0.5181,-0.07,0.0944
0.5543,-0.0729,0.114
0.5944,-0.0802,0.132
0.6329,-0.0851,0.1481
0.6647,-0.0929,0.154
0.6926,-0.1007,0.1618
0.7131,-0.1095,0.1613
0.7287,-0.1183,0.1589
0.7409,-0.1261,0.1584
0.7454,-0.1378,0.1496
0.7503,-0.1471,0.1335
0.7551,-0.1554,0.1184
0.7522,-0.1648,0.0997
0.7478,-0.174,0.0846
0.7414,-0.1799,0.0646
0.738,-0.1872,0.0485
0.7272,-0.1916,0.0358
0.7175,-0.196,0.0216
0.7033,-0.2009,0.0128
0.6843,-0.1999,0.0138
0.6726,-0.2028,0.0197
0.6618,-0.1955,0.0304
0.6525,-0.1887,0.0455
0.6462,-0.176,0.0612
0.6433,-0.1682,0.0841
0.6506,-0.1594,0.1115
0.6652,-0.1461,0.1452
0.6765,-0.1339,0.1809
0.6945,-0.1198,0.2077
0.7194,-0.108,0.2425
0.7464,-0.0988,0.2742
0.7766,-0.0866,0.3055
0.805,-0.0783,0.3338
0.8357,-0.0792,0.3636
0.8719,-0.0778,0.39
0.9207,-0.0797,0.4154
0.9662,-0.0851,0.4394
1.016,-0.0866,0.4648
1.0664,-0.0924,0.4823
1.1103,-0.0939,0.4999
1.1626,-0.1007,0.5131
1.212,-0.1071,0.5268
1.2515,-0.1129,0.5371
1.2936,-0.1154,0.5371
1.3263,-0.1183,0.5327
1.3517,-0.1149,0.5224
1.3806,-0.1154,0.5092
1.4025,-0.1139,0.4941
1.4177,-0.1129,0.4721
1.4279,-0.1119,0.4496
1.4348,-0.108,0.4281
1.4309,-0.1051,0.4071
1.424,-0.0993,0.3876
1.4089,-0.1012,0.3734
1.3913,-0.0973,0.3651
1.3639,-0.1012,0.3656
1.3346,-0.1046,0.3695
1.3019,-0.1036,0.3753
1.2725,-0.108,0.389
1.2408,-0.11,0.4149
1.2139,-0.1036,0.4384
1.1851,-0.0973,0.4628
1.1611,-0.0914,0.4926
1.1455,-0.088,0.519
1.1299,-0.0939,0.5439
1.1201,-0.1007,0.5601
1.1186,-0.1061,0.5728
1.1211,-0.1183,0.5762
1.1201,-0.1329,0.5728
1.1338,-0.1427,0.562
1.1445,-0.1544,0.5449
1.1626,-0.1711,0.5151
1.189,-0.1916,0.4789
1.2125,-0.2038,0.4399
1.232,-0.217,0.4007
1.2545,-0.2312,0.3534
1.2736,-0.2409,0.3113
1.2921,-0.2507,0.2644
1.317,-0.259,0.2229
1.3366,-0.2541,0.1853
1.3522,-0.2517,0.1569
1.3678,-0.2439,0.1257
1.3855,-0.2292,0.0973
1.3864,-0.2053,0.0724
1.382,-0.1833,0.0524
1.3751,-0.1633,0.0324
1.3693,-0.1393,0.0104
1.3629,-0.1178,-0.0068
1.3502,-0.0983,-0.0244
1.3449,-0.0822,-0.039
1.3361,-0.0704,-0.0546
1.3209,-0.0597,-0.0649
1.3092,-0.0553,-0.0693
1.2926,-0.0548,-0.0766
1.272,-0.0612,-0.0795
1.2564,-0.066,-0.0756
1.2364,-0.0695,-0.0649
1.211,-0.0817,-0.059
1.1705,-0.0875,-0.0595
1.1255,-0.087,-0.0581
1.084,-0.089,-0.0595
1.0463,-0.0895,-0.0581
0.9965,-0.09,-0.0581
0.9525,-0.0895,-0.06
0.9085,-0.0949,-0.06
0.8651,-0.0856,-0.0659
0.8196,-0.0748,-0.0722
0.782,-0.0636,-0.081
0.7409,-0.0494,-0.0966
0.695,-0.0377,-0.1152
0.656,-0.0274,-0.145
0.6251,-0.0225,-0.188
0.5963,-0.0294,-0.233
0.5714,-0.0513,-0.2911
0.5402,-0.067,-0.3664
0.4966,-0.0768,-0.4431
0.4624,-0.0963,-0.5168
0.6124,-0.1066,-0.5305
0.7355,-0.0866,-0.5115
0.6809,-0.1046,-0.617
0.674,-0.1339,-0.7035
0.6809,-0.1574,-0.7705
0.6809,-0.1794,-0.8344
0.675,-0.2024,-0.8931
0.676,-0.2351,-0.9375
0.6794,-0.2619,-0.9688
0.6867,-0.2903,-0.9938
0.7048,-0.3235,-0.9981
0.7351,-0.3616,-0.982
0.7757,-0.4051,-0.9625
0.8211,-0.4388,-0.9307
0.8695,-0.4686,-0.8985
0.9168,-0.5004,-0.8633
0.9755,-0.5116,-0.8154
1.0351,-0.5234,-0.768
1.1025,-0.5287,-0.7177
1.166,-0.5165,-0.6591
1.2227,-0.4667,-0.5999
1.2423,-0.3675,-0.5452
1.2506,-0.2805,-0.5139
1.2691,-0.2155,-0.4861
1.2789,-0.176,-0.4524
1.2017,-0.176,-0.447
1.2164,-0.1941,-0.3874
1.273,-0.1853,-0.2628
1.3327,-0.1662,-0.1172
1.4006,-0.1437,0.0333
1.4709,-0.1188,0.1931
1.5291,-0.0836,0.3509
1.5813,-0.0568,0.4076
1.6258,-0.0298,0.4394
1.6546,-0.003,0.435
1.6703,0.0146,0.3851
1.6849,0.0331,0.3211
1.6971,0.0512,0.2517
1.6952,0.0689,0.1872
1.7035,0.0835,0.1237
1.7118,0.0982,0.0704
1.7133,0.1011,0.0177
1.6957,0.0331,-0.0644
1.6776,-0.0543,-0.1538
1.661,-0.091,-0.2041
1.6444,-0.1246,-0.2354
1.6337,-0.1594,-0.2574
1.6063,-0.1965,-0.2647
1.5511,-0.2111,-0.2633
1.4748,-0.2585,-0.2706
1.4138,-0.3001,-0.275
1.3493,-0.3157,-0.2686
1.2863,-0.3235,-0.2589
1.2281,-0.3333,-0.2437
1.1832,-0.344,-0.2188
1.1377,-0.347,-0.2017
1.0884,-0.3528,-0.188
1.0444,-0.3367,-0.1738
1.0009,-0.3094,-0.1563
0.9701,-0.3055,-0.1558
0.9437,-0.2981,-0.1528
0.9232,-0.2962,-0.1533
0.9002,-0.2908,-0.1699
0.8797,-0.281,-0.189
0.867,-0.2747,-0.2056
0.8469,-0.2624,-0.2325
0.825,-0.2463,-0.2574
0.8079,-0.2277,-0.2784
0.7932,-0.1975,-0.3038
0.7883,-0.1672,-0.3067
0.8015,-0.1383,-0.3102
0.8157,-0.1066,-0.3131
0.8357,-0.0812,-0.315
0.8568,-0.0592,-0.3067
0.8807,-0.0406,-0.2965
0.9085,-0.0181,-0.2774
0.9344,-0.0015,-0.2535
0.9682,0.0029,-0.2252
0.9755,-0.0176,-0.2135
0.9579,-0.0328,-0.1953
0.9388,-0.0421,-0.1665
0.9325,-0.0558,-0.1323
0.9334,-0.0665,-0.0898
0.9476,-0.0792,-0.0454
0.9716,-0.0973,0.0026
0.9985,-0.1134,0.0519
1.0405,-0.13,0.1096
1.0791,-0.1417,0.1628
1.1196,-0.1515,0.2048
1.1626,-0.1682,0.2356
1.2076,-0.1789,0.2644
1.2388,-0.1955,0.281
1.2652,-0.2077,0.2937
1.297,-0.2165,0.2952
1.3141,-0.2263,0.2869
1.3278,-0.236,0.2674
1.3371,-0.2375,0.2478
1.3341,-0.2419,0.219
1.3229,-0.2487,0.1755
1.3092,-0.2414,0.1301
1.2946,-0.2317,0.0783
1.277,-0.2273,0.028
1.2642,-0.2126,-0.0185
1.2525,-0.2053,-0.0624
1.2374,-0.1892,-0.1118
1.2222,-0.1765,-0.1592
1.2051,-0.1613,-0.2051
1.1939,-0.1452,-0.2447
1.1817,-0.1325,-0.2789
1.1739,-0.1207,-0.3097
1.1587,-0.0988,-0.338
1.1494,-0.0866,-0.3615
1.1377,-0.0709,-0.3756
1.1269,-0.0587,-0.3883
1.1094,-0.043,-0.3923
1.0972,-0.0318,-0.3918
1.0879,-0.0211,-0.3849
1.0713,-0.0123,-0.3678
1.0561,-0.0074,-0.3468
1.0463,0.0014,-0.3219
1.0341,0.0053,-0.2921
1.0229,0.0038,-0.2628
1.0112,0.0068,-0.2271
0.997,0.0019,-0.188
0.9838,-0.0005,-0.1514
0.9652,-0.0035,-0.1104
0.952,-0.0089,-0.0747
0.9339,-0.0118,-0.0478
0.9164,-0.0215,-0.019
0.8968,-0.0303,0.0118
0.8802,-0.0352,0.0309
0.8631,-0.0435,0.0524
0.8499,-0.0553,0.0685
0.8323,-0.0582,0.0758
0.8162,-0.07,0.0914
0.802,-0.0827,0.0968
0.7927,-0.0953,0.0997
0.7805,-0.111,0.0993
0.7717,-0.1227,0.0968
0.7605,-0.1412,0.0944
0.7537,-0.1525,0.0861
0.7444,-0.1648,0.0748
0.7399,-0.1774,0.0617
0.7385,-0.1965,0.0465
0.7341,-0.2126,0.0338
0.737,-0.2234,0.0216
0.7395,-0.2385,0.0045
0.7454,-0.2517,-0.0087
0.7527,-0.2644,-0.0253
0.7605,-0.2722,-0.0483
0.7708,-0.2796,-0.0566
0.7883,-0.2864,-0.0712
0.8001,-0.2928,-0.0834
0.8167,-0.2928,-0.0961
0.8323,-0.2918,-0.1079
0.8534,-0.2874,-0.1113
0.8739,-0.2786,-0.1177
0.8885,-0.2713,-0.127
0.9027,-0.2678,-0.1284
0.9227,-0.2551,-0.1279
0.93,-0.2385,-0.127
0.9417,-0.2234,-0.1284
0.9525,-0.2087,-0.1221
0.9565,-0.195,-0.1177
0.9594,-0.1799,-0.1084
0.9584,-0.1667,-0.0981
0.9584,-0.1525,-0.0932
0.9535,-0.1437,-0.083
0.9461,-0.131,-0.0756
0.9403,-0.1227,-0.0649
0.9325,-0.1129,-0.0537
0.9286,-0.1032,-0.0429
0.9188,-0.0978,-0.0278
0.9139,-0.0914,-0.0165
0.9037,-0.0851,-0.0014
0.9012,-0.0861,0.0099
0.8861,-0.0846,0.0206
0.8827,-0.0807,0.026
0.8783,-0.0783,0.0353
0.8734,-0.0792,0.0411
0.8617,-0.0773,0.0455
0.8578,-0.0739,0.0499
0.8568,-0.0758,0.0504
0.846,-0.0724,0.0504
0.8328,-0.07,0.0553
0.822,-0.0685,0.0534
0.8098,-0.067,0.0543
0.801,-0.0656,0.0568
0.7908,-0.0631,0.0563
0.7805,-0.0626,0.0573
0.7703,-0.0641,0.0626
0.7566,-0.0651,0.067
0.7459,-0.0636,0.0665
0.7341,-0.0592,0.066
0.7253,-0.0602,0.0695
0.715,-0.0597,0.0695
0.7058,-0.0597,0.0787
0.6926,-0.0607,0.087
0.6789,-0.0641,0.0934
0.6686,-0.0636,0.1027
0.6628,-0.0656,0.1091
0.6555,-0.0734,0.1154
0.6545,-0.0783,0.1228
0.6462,-0.0802,0.1291
0.6447,-0.0836,0.135
0.6452,-0.0851,0.1452
0.6442,-0.0875,0.1545
0.6486,-0.0914,0.1638
0.6516,-0.0914,0.1735
0.6564,-0.0944,0.1838
0.6579,-0.0953,0.1916
0.6623,-0.0993,0.2033
0.6711,-0.1002,0.2067
0.676,-0.1036,0.2156
0.673,-0.1041,0.2273
0.6823,-0.1115,0.2298
0.6848,-0.1183,0.2376
0.6857,-0.1212,0.2434
0.6862,-0.1286,0.2469
0.6804,-0.1315,0.2522
0.6794,-0.132,0.2566
0.6745,-0.1349,0.2586
0.6726,-0.1393,0.2547
0.6667,-0.1427,0.2571
0.6628,-0.1466,0.2512
0.6555,-0.1491,0.2464
0.654,-0.1525,0.2395
0.654,-0.1608,0.241
0.6569,-0.1618,0.2376
0.6628,-0.1628,0.2332
0.6721,-0.1648,0.2293
0.6833,-0.1652,0.2254
0.6989,-0.1687,0.2249
0.7077,-0.1706,0.2205
0.7194,-0.1765,0.2205
0.7287,-0.1814,0.2122
0.737,-0.1848,0.2024
0.7404,-0.1838,0.1955
0.7449,-0.1833,0.1828
0.7459,-0.1857,0.1765
0.7498,-0.1828,0.1667
0.7522,-0.1706,0.154
0.7429,-0.1696,0.1438
0.7248,-0.1657,0.1281
0.7092,-0.1549,0.1276
0.6794,-0.1442,0.1257
0.655,-0.1354,0.1169
0.6256,-0.1222,0.1179
0.589,-0.1071,0.1198
0.5524,-0.0929,0.1179
0.5137,-0.0778,0.1228
0.4751,-0.066,0.1369
0.4375,-0.044,0.1418
0.4004,-0.0279,0.155
0.3637,-0.0059,0.1726
0.3349,0.0102,0.1897
0.309,0.0317,0.2048
0.2899,0.0458,0.2205
0.2812,0.0405,0.239
0.2646,0.0786,0.2508
0.2675,0.0947,0.2654
0.2895,0.0972,0.283
0.3153,0.1025,0.2913
0.3413,0.1035,0.2854
0.3784,0.1113,0.2713
0.4278,0.1118,0.2537
0.4742,0.1192,0.2312
0.5171,0.1221,0.2058
0.5626,0.126,0.1804
0.5997,0.1348,0.1525
0.6281,0.1421,0.1208
0.6496,0.1431,0.09
0.6701,0.1538,0.0582
0.6828,0.1593,0.0231
0.6931,0.1749,-0.0038
0.697,0.191,-0.0356
0.697,0.2032,-0.0571
0.6984,0.2252,-0.0688
0.7014,0.2462,-0.0927
0.7087,0.2697,-0.0991
0.7136,0.2931,-0.1005
0.7229,0.3141,-0.0927
0.7336,0.3376,-0.0722
0.7454,0.3571,-0.0537
0.763,0.3777,-0.0219
0.7757,0.3928,0.007
0.7981,0.3967,0.0358
0.8162,0.3972,0.0685
0.8357,0.3952,0.0988
0.849,0.384,0.1306
0.8607,0.3752,0.1623
0.8626,0.3571,0.1814
0.8631,0.3395,0.2009
0.8621,0.3293,0.218
0.8617,0.3068,0.218
0.8695,0.2838,0.2067
0.8792,0.2707,0.1887
0.8919,0.2677,0.1579
0.9178,0.2594,0.1096
0.9515,0.2476,0.0426
0.9936,0.2428,-0.0244
1.0331,0.2349,-0.1015
1.0801,0.2325,-0.2041
1.1333,0.2144,-0.3145
1.1783,0.193,-0.4304
1.2442,0.1861,-0.5506
1.3463,0.1803,-0.6361
1.4587,0.1646,-0.723
1.5608,0.0899,-0.8413
1.6263,-0.0186,-0.9752
1.683,-0.0499,-1.0861
1.7538,-0.0753,-1.1838
1.8223,-0.0997,-1.2757
1.8843,-0.1095,-1.3548
1.9337,-0.1066,-1.435
1.9679,-0.0978,-1.5224
2.0128,-0.0949,-1.6026
2.0827,-0.0958,-1.6583
2.156,-0.0919,-1.6797
2.2371,-0.0953,-1.6749
2.3182,-0.1022,-1.6724
2.4037,-0.1124,-1.6641
2.4936,-0.129,-1.6416
2.5996,-0.1417,-1.5879
2.7057,-0.1628,-1.5166
2.8132,-0.1989,-1.412
2.9163,-0.2194,-1.2777
2.9905,-0.2575,-1.0934
3.055,-0.2918,-0.8809
3.1254,-0.326,-0.6596
3.1752,-0.3773,-0.4324
3.2143,-0.4359,-0.2046
3.2314,-0.5004,0.0197
3.2148,-0.5659,0.2268
3.1688,-0.6343,0.4027
3.0897,-0.7105,0.5273
2.9558,-0.7764,0.6177
2.7712,-0.8102,0.669
2.5552,-0.797,0.6807
2.3353,-0.7554,0.6895
2.1223,-0.6821,0.6968
1.9698,-0.6104,0.7257
1.8667,-0.5663,0.7511
1.77,-0.5317,0.7335
1.6937,-0.4955,0.6925
1.6337,-0.4588,0.6422
1.596,-0.4203,0.5811
1.5608,-0.3783,0.5175
1.5291,-0.3445,0.4511
1.5149,-0.3118,0.3778
1.4826,-0.2923,0.3011
1.4504,-0.2757,0.2278
1.3908,-0.261,0.1633
1.3297,-0.2517,0.1125
1.2701,-0.24,0.0651
1.1944,-0.2229,0.0358
1.1079,-0.2092,-0.0004
1.0395,-0.1975,-0.0327
0.9535,-0.1848,-0.0571
0.8626,-0.1711,-0.0747
0.7581,-0.1564,-0.0976
0.6467,-0.1378,-0.0976
0.5025,-0.1119,-0.0869
0.4131,-0.0885,-0.1152
0.3525,-0.0641,-0.124
0.2816,-0.0269,-0.1289
0.2328,0.0195,-0.1416
0.2064,0.0679,-0.1402
0.2044,0.1167,-0.1455
0.2133,0.1729,-0.1582
0.2187,0.2423,-0.1655
0.2201,0.3195,-0.187
0.2919,0.3683,-0.2179
0.3901,0.3742,-0.2516
0.4781,0.3889,-0.2823
0.5612,0.407,-0.3244
0.6447,0.4255,-0.3683
0.7111,0.4548,-0.4103
0.759,0.5027,-0.4441
0.8216,0.5335,-0.4787
0.8963,0.5496,-0.5056
0.9711,0.5555,-0.5124
1.0365,0.5604,-0.5178
1.1025,0.5604,-0.5115
1.1685,0.5599,-0.4988
1.2266,0.554,-0.4739
1.2828,0.5418,-0.4431
1.3327,0.5296,-0.4025
1.3747,0.5086,-0.3605
1.4011,0.4768,-0.3121
1.4089,0.4231,-0.2652
1.3889,0.3561,-0.2227
1.3644,0.2716,-0.1768
1.3512,0.1983,-0.1172
1.3429,0.1475,-0.0556
1.3361,0.1099,-0.0073
1.3322,0.0689,0.0377
1.3351,0.0214,0.0851
1.3478,-0.0401,0.1276
1.3468,-0.089,0.1521
1.3229,-0.1207,0.1848
1.2985,-0.1466,0.2067
1.2716,-0.1633,0.2283
1.2296,-0.1804,0.2307
1.1812,-0.1975,0.2307
1.1352,-0.2141,0.2249
1.0845,-0.2243,0.2171
1.0434,-0.239,0.2058
1.0068,-0.2541,0.1955
0.9696,-0.2639,0.1745
0.9398,-0.2693,0.156
0.9061,-0.2766,0.1315
0.8802,-0.2854,0.1057
0.8573,-0.2913,0.0778
0.8333,-0.2967,0.0485
0.8045,-0.2932,0.0216
0.7747,-0.2937,0.0001
0.7478,-0.2918,-0.0224
0.7111,-0.2864,-0.04
0.6877,-0.2693,-0.0581
0.6804,-0.2356,-0.0698
0.6911,-0.2111,-0.0751
0.7038,-0.1941,-0.0781
0.7136,-0.177,-0.0854
0.717,-0.1599,-0.0913
0.7136,-0.1412,-0.1005
0.7106,-0.1276,-0.1113
0.7019,-0.1085,-0.1187
0.6857,-0.0851,-0.1255
0.6711,-0.0656,-0.1294
0.6613,-0.0479,-0.1348
0.6511,-0.0284,-0.1309
0.6344,-0.0064,-0.1294
0.6241,0.0161,-0.1289
0.611,0.0341,-0.1226
0.6036,0.0493,-0.1177
0.587,0.064,-0.1109
0.5719,0.0879,-0.1064
0.5612,0.1055,-0.1025
0.5455,0.1201,-0.0932
0.5328,0.1353,-0.0781
0.5245,0.1431,-0.0668
0.5069,0.1509,-0.0605
0.4952,0.1597,-0.0497
0.4834,0.1666,-0.0336
0.4654,0.1759,-0.02
0.4581,0.1803,-0.0078
0.4458,0.1905,0.0031
0.4288,0.1959,0.0114
0.4175,0.2013,0.0172
0.4062,0.2071,0.0294
0.395,0.2096,0.0387
0.3843,0.213,0.046
0.3701,0.2144,0.0494
0.3681,0.2135,0.0538
0.3637,0.2159,0.0587
0.3589,0.2164,0.0631
0.3603,0.2125,0.0573
0.3677,0.2037,0.0577
0.3808,0.2032,0.0641
0.3916,0.1978,0.0548
0.414,0.1895,0.0538
0.4424,0.1847,0.045
0.4722,0.1773,0.0377
0.5054,0.1646,0.0314
0.5333,0.1475,0.0143
0.547,0.1323,-0.0029
0.5499,0.1221,-0.019
0.5646,0.1079,-0.0351
0.5865,0.0977,-0.0419
0.6085,0.084,-0.0527
0.6379,0.0718,-0.0566
0.6711,0.0625,-0.06
0.7028,0.0478,-0.0644
0.7375,0.041,-0.0654
0.7752,0.0258,-0.0649
0.8142,0.0126,-0.0649
0.843,0.0058,-0.0634
0.8773,-0.0035,-0.0615
0.9027,-0.0132,-0.0624
0.9251,-0.023,-0.0581
0.9403,-0.0279,-0.0537
0.954,-0.0342,-0.0507
0.9643,-0.0362,-0.0405
0.9721,-0.0367,-0.0273
0.9726,-0.0421,-0.0175
0.9692,-0.0445,-0.0053
0.9711,-0.046,0.0128
0.9701,-0.044,0.0319
0.9633,-0.0504,0.0558
0.9544,-0.0523,0.0846
0.9437,-0.0626,0.1101
0.931,-0.066,0.1384
0.9203,-0.069,0.1696
0.9046,-0.0748,0.1994
0.891,-0.0778,0.2268
0.8748,-0.0812,0.2542
0.8597,-0.0836,0.2845
0.843,-0.0851,0.3103
0.823,-0.09,0.3397
0.8079,-0.0929,0.3646
0.7903,-0.0958,0.3802
0.7761,-0.0988,0.3861
0.7683,-0.1032,0.3954
0.7581,-0.109,0.4022
0.7488,-0.1115,0.4056
0.7493,-0.1163,0.4012
0.739,-0.1173,0.3934
0.7321,-0.1212,0.3812
0.7341,-0.1207,0.3656
0.7424,-0.1217,0.3495
0.7414,-0.1237,0.3314
0.7404,-0.1251,0.3103
0.7459,-0.1271,0.2913
0.7493,-0.129,0.2635
0.7522,-0.1271,0.2405
0.7571,-0.1271,0.2239
0.7615,-0.1286,0.2038
0.7683,-0.131,0.1916
0.7757,-0.1271,0.1784
0.784,-0.1305,0.1599
0.7908,-0.1305,0.1579
0.804,-0.1295,0.1496
0.8108,-0.1261,0.1467
0.8196,-0.1232,0.1428
0.8269,-0.1149,0.1467
0.8338,-0.1134,0.1481
0.8455,-0.1129,0.1564
0.8534,-0.1085,0.1599
0.8651,-0.1056,0.1613
0.8709,-0.1012,0.1652
0.8851,-0.1002,0.1677
0.8963,-0.1002,0.1716
0.912,-0.1027,0.1643
0.93,-0.0983,0.1525
0.9476,-0.0953,0.1335
0.9657,-0.0919,0.1101
0.9853,-0.091,0.0743
1.0004,-0.0783,0.0416
1.0336,-0.088,0.0172
1.0478,-0.1051,-0.0214
1.0605,-0.1036,-0.0654
1.0762,-0.0973,-0.1064
1.0908,-0.0983,-0.1577
1.1069,-0.0968,-0.2071
1.125,-0.091,-0.2462
1.1465,-0.0885,-0.2852
1.1719,-0.0885,-0.3254
1.1949,-0.0822,-0.359
1.2257,-0.0743,-0.3962
1.2603,-0.0719,-0.4299
1.296,-0.0729,-0.4621
1.3307,-0.0709,-0.4768
1.3664,-0.0621,-0.4993
1.4035,-0.0543,-0.5256
1.448,-0.0445,-0.534
1.4925,-0.046,-0.5359
1.4915,-0.0416,-0.5545
1.4148,-0.044,-0.6165
1.4548,-0.0626,-0.6097
1.49,-0.0695,-0.5809
1.513,-0.0665,-0.5667
1.5364,-0.0636,-0.5399
1.574,-0.0607,-0.5061
1.6112,-0.0513,-0.4768
1.6498,-0.0469,-0.4465
1.7011,-0.0455,-0.4118
1.7514,-0.0372,-0.3786
1.8022,-0.024,-0.3468
1.8555,-0.0089,-0.3229
1.9009,0.0161,-0.2984
1.9503,0.0493,-0.2725
1.9952,0.0957,-0.2486
2.0324,0.1441,-0.2286
2.0519,0.2017,-0.2154
2.0519,0.2535,-0.2075
2.0417,0.3073,-0.2066
2.0142,0.3605,-0.2056
1.9869,0.4035,-0.2124
1.9508,0.4353,-0.2252
1.9224,0.4597,-0.2174
1.897,0.4783,-0.2129
1.8716,0.4944,-0.2041
1.8384,0.5086,-0.1944
1.8017,0.5257,-0.1831
1.7709,0.5379,-0.166
1.7421,0.5565,-0.1485
1.7089,0.5682,-0.1416
1.6849,0.5794,-0.1226
1.659,0.5912,-0.1054
1.6317,0.6014,-0.0815
1.6083,0.6088,-0.0629
1.5887,0.6122,-0.0366
1.5735,0.6107,-0.0112
1.5506,0.6068,0.0226
1.5335,0.6,0.0577
1.5174,0.5833,0.0944
1.4973,0.5613,0.1359
1.4763,0.5272,0.175
1.4568,0.4842,0.2112
1.4397,0.4499,0.2449
1.4177,0.4201,0.2776
1.3967,0.3933,0.3079
1.3703,0.363,0.329
1.3434,0.3341,0.3441
1.3185,0.3073,0.3548
1.2931,0.2863,0.3587
1.2642,0.2633,0.3631
1.2374,0.2379,0.3578
1.2149,0.2164,0.3495
1.1871,0.1964,0.3387
1.1631,0.1768,0.3255
1.1465,0.1582,0.3074
1.1284,0.1436,0.2796
1.1191,0.1328,0.2586
1.1157,0.1138,0.2342
1.1074,0.1006,0.2019
1.0957,0.0938,0.1657
1.0918,0.085,0.1306
1.0845,0.0816,0.0939
1.0908,0.0903,0.0587
1.124,0.0855,0.025
1.1465,0.0693,-0.0082
1.1494,0.0562,-0.0463
1.1538,0.0502,-0.0659
1.1636,0.0473,-0.0776
1.1577,0.0449,-0.0913
1.1445,0.0478,-0.1113
1.125,0.0522,-0.1187
1.1211,0.0596,-0.1192
1.1128,0.0601,-0.125
1.1118,0.0649,-0.1206
1.1113,0.0772,-0.1094
1.1025,0.0864,-0.0922
1.0918,0.0908,-0.0707
1.0781,0.0933,-0.0502
1.0575,0.1001,-0.0297
1.0341,0.1065,-0.0038
1.0195,0.1094,0.0187
0.9897,0.1094,0.0421
0.9496,0.1035,0.0455
0.9227,0.1109,0.0617
0.8998,0.1104,0.0792
0.8739,0.1094,0.0875
0.8524,0.1084,0.0944
0.8382,0.1045,0.0983
0.8269,0.1055,0.1071
0.8206,0.0991,0.1101
0.8152,0.0991,0.1115
0.8924,0.1123,0.1442
0.9046,0.1235,0.1657
0.8812,0.1089,0.1291
0.8675,0.0933,0.1046
0.8543,0.0767,0.0866
0.845,0.0635,0.0651
0.8352,0.0517,0.0509
0.823,0.0439,0.0358
0.8133,0.0307,0.0236
0.8015,0.0146,0.0138
0.7903,0.0024,0.0035
0.7791,-0.0118,-0.0087
0.7688,-0.0211,-0.0151
0.759,-0.0279,-0.019
0.7488,-0.0367,-0.0292
0.7414,-0.0479,-0.0336
0.7243,-0.0508,-0.0371
0.7121,-0.0607,-0.0346
0.697,-0.066,-0.0317
0.6828,-0.0675,-0.0258
0.6701,-0.069,-0.0131
0.654,-0.0734,-0.0029
0.6374,-0.0773,0.0065
0.6212,-0.0812,0.0241
0.6032,-0.0817,0.0411
0.588,-0.0822,0.0592
0.5719,-0.0836,0.0768
0.5572,-0.087,0.0978
0.5446,-0.0929,0.1101
0.5294,-0.0875,0.1286
0.5206,-0.0914,0.1418
0.5035,-0.0934,0.1535
0.4932,-0.0978,0.1687
0.4795,-0.0978,0.1784
0.4786,-0.0939,0.1877
0.4795,-0.0841,0.2009
0.4825,-0.0773,0.2107
0.4869,-0.069,0.2205
0.4991,-0.0665,0.2234
0.5147,-0.0543,0.2161
0.5269,-0.0425,0.2112
0.5377,-0.0323,0.2009
0.5509,-0.023,0.1877
0.5592,-0.0118,0.1745
0.5626,-0.001,0.1604
0.5685,0.0131,0.1467
0.5651,0.0268,0.1379
0.5636,0.039,0.1208
0.5616,0.0473,0.1135
0.5582,0.0606,0.1086
0.5509,0.0664,0.1032
0.5416,0.0723,0.0988
0.5372,0.0796,0.0924
0.5309,0.0874,0.0944
0.5186,0.0918,0.0993
0.5123,0.0933,0.1002
0.5035,0.1011,0.1007
0.4913,0.1006,0.1081
0.482,0.103,0.1135
0.4664,0.0986,0.1115
0.4434,0.1148,0.1096
0.4322,0.1221,0.1164
0.4297,0.1123,0.1267
0.4278,0.1118,0.1384
0.4238,0.1065,0.1408
0.4223,0.1074,0.1486
0.4228,0.1011,0.1501
0.4214,0.0957,0.1511
0.418,0.0894,0.1506
0.4204,0.0845,0.1452
0.417,0.0781,0.1438
0.4101,0.0772,0.1394
0.4004,0.0723,0.1355
0.395,0.0698,0.1276
0.3872,0.0674,0.1184
0.3779,0.0698,0.1076
0.3672,0.0723,0.1012
0.3618,0.0762,0.0914
0.352,0.0874,0.0875
0.3462,0.0933,0.0875
0.3393,0.1016,0.0831
0.3315,0.1118,0.0831
0.3301,0.125,0.0836
0.3281,0.1367,0.0827
0.3261,0.1485,0.0822
0.3252,0.1587,0.0841
0.3153,0.1548,0.0802
0.2973,0.1754,0.0612
0.3271,0.193,0.0675
0.4996,0.192,0.1379
0.4854,0.2071,0.1481
0.4361,0.2144,0.1115
0.4155,0.21,0.0924
0.3955,0.212,0.0817
0.3852,0.2115,0.068
0.3701,0.212,0.0626
0.3652,0.214,0.0763
0.3891,0.2081,0.0953
0.439,0.1944,0.1291
0.4869,0.1827,0.1525
0.5392,0.1651,0.1701
0.5846,0.1543,0.1828
0.6232,0.1445,0.1877
0.6672,0.1416,0.1901
0.7097,0.1397,0.198
0.7586,0.1362,0.1936
0.8128,0.1402,0.2004
0.8631,0.146,0.2048
0.9188,0.1553,0.2092
0.975,0.1734,0.219
1.0346,0.1881,0.2205
1.0981,0.2017,0.218
1.1533,0.2227,0.2043
1.2144,0.2472,0.1901
1.2858,0.2501,0.176
1.338,0.2658,0.1403
1.3947,0.2863,0.0978
1.4519,0.3087,0.047
1.5149,0.3322,0.0055
1.5784,0.3561,-0.0371
1.6429,0.3669,-0.0815
1.6908,0.3478,-0.1377
1.705,0.2623,-0.2315
1.7431,0.2525,-0.273
1.7851,0.2603,-0.2989
1.8306,0.2589,-0.3273
1.8848,0.2569,-0.3488
1.9322,0.2599,-0.3703
1.9864,0.2628,-0.3913
2.0431,0.2692,-0.4181
2.1003,0.2765,-0.4382
2.1589,0.277,-0.4612
2.2195,0.2824,-0.4851
2.2776,0.2804,-0.5002
2.3304,0.2775,-0.5095
2.3842,0.2755,-0.5085
2.4247,0.2755,-0.5046
2.4472,0.2608,-0.5027
2.4609,0.2432,-0.4836
2.4555,0.2135,-0.4685
2.4271,0.1651,-0.4465
2.3392,0.106,-0.447
2.1848,0.0253,-0.4778
2.0543,-0.0264,-0.4783
1.9444,-0.0534,-0.4509
1.834,-0.0729,-0.424
1.7338,-0.0914,-0.3898
1.6468,-0.1095,-0.3371
1.5667,-0.1246,-0.2911
1.4934,-0.1427,-0.2413
1.4192,-0.1588,-0.1973
1.3405,-0.1765,-0.1519
1.272,-0.1843,-0.0957
1.2408,-0.1207,-0.0161
1.1944,-0.0983,0.0426
1.1484,-0.1051,0.0743
1.0991,-0.1149,0.1071
1.0566,-0.1217,0.1418
1.0136,-0.1344,0.1677
0.9692,-0.1515,0.1984
0.9325,-0.1721,0.2312
0.8958,-0.1984,0.2766
0.8719,-0.2317,0.3241
0.8529,-0.2732,0.369
0.8372,-0.3118,0.4129
0.8279,-0.3494,0.4662
0.8255,-0.3929,0.5092
0.8264,-0.4295,0.5513
0.8401,-0.4588,0.5864
0.8568,-0.4902,0.6206
0.8734,-0.52,0.6402
0.9198,-0.5478,0.6529
1.018,-0.5243,0.6666
1.1196,-0.3895,0.6973
1.209,-0.2859,0.6934
1.2946,-0.2517,0.6641
1.3703,-0.2146,0.626
1.4177,-0.1662,0.5674
1.4519,-0.1315,0.5038
1.4826,-0.0988,0.4335
1.5139,-0.0739,0.3543
1.5467,-0.0518,0.2737
1.5701,-0.0206,0.1975
1.5921,0.0063,0.1169
1.619,0.0395,0.0382
1.6459,0.0698,-0.0273
1.6722,0.0967,-0.0913
1.7031,0.1226,-0.1621
1.7211,0.1538,-0.2286
1.746,0.1851,-0.2843
1.7856,0.2037,-0.3332
1.8002,0.2105,-0.3742
1.8022,0.2154,-0.4152
1.7939,0.2247,-0.4382
1.7773,0.2286,-0.4421
1.7363,0.2306,-0.4441
1.6654,0.2369,-0.4397
1.6004,0.2384,-0.4176
1.5389,0.2428,-0.3888
1.4826,0.2403,-0.3532
1.426,0.234,-0.3087
1.3845,0.2149,-0.2564
1.3327,0.2227,-0.1973
1.2955,0.2237,-0.1265
1.2589,0.2174,-0.062
1.2198,0.2096,-0.0078
1.1802,0.1964,0.0519
1.1426,0.1832,0.1223
1.1128,0.1705,0.1809
1.0815,0.1577,0.2273
1.0473,0.1475,0.2713
1.0131,0.1338,0.3103
0.9765,0.1201,0.3402
0.9408,0.106,0.3558
0.9081,0.0991,0.3714
0.8709,0.0899,0.3734
0.8386,0.0767,0.3734
0.8064,0.0606,0.3685
0.7727,0.0497,0.3529
0.7454,0.0361,0.3363
0.7204,0.0253,0.3079
0.6975,0.0121,0.2742
0.6765,0.0068,0.2385
0.6535,-0.002,0.2043
0.6389,-0.0098,0.1648
0.6241,-0.0137,0.1188
0.609,-0.0211,0.0812
0.6017,-0.0225,0.0416
0.6002,-0.0245,0.0089
0.5914,-0.0196,-0.0273
0.6198,-0.0089,-0.0502
0.7189,0.0414,-0.0317
0.6896,0.0517,-0.0624
0.6672,0.0385,-0.1152
0.6589,0.0327,-0.1528
0.6442,0.0331,-0.1865
0.6295,0.0371,-0.2129
0.6119,0.0429,-0.2291
0.5992,0.0542,-0.2398
0.5861,0.0649,-0.2413
0.5734,0.0757,-0.2408
0.5558,0.0884,-0.234
0.5446,0.0982,-0.2276
0.5362,0.1094,-0.2154
0.523,0.1192,-0.1953
0.5167,0.124,-0.1787
0.5157,0.1323,-0.1548
0.5181,0.1392,-0.125
0.5314,0.1411,-0.0976
0.5397,0.1392,-0.0703
0.5436,0.1402,-0.0488
0.5436,0.1348,-0.0229
0.5416,0.1299,0.004
0.5343,0.1192,0.0241
0.5264,0.1123,0.0485
0.5176,0.1065,0.0743
0.5064,0.0972,0.0978
0.4986,0.0933,0.1169
0.4927,0.0894,0.133
0.4859,0.0859,0.1472
0.482,0.0835,0.1667
0.4849,0.0752,0.177
0.4864,0.0737,0.197
0.4922,0.0698,0.2107
0.4932,0.062,0.22
0.4957,0.0571,0.2263
0.502,0.0493,0.2273
0.504,0.0463,0.2273
0.503,0.0356,0.2288
0.5035,0.0258,0.2239
0.5049,0.0195,0.221
0.5088,0.0112,0.2146
0.5118,-0.0005,0.2063
0.5147,-0.0089,0.2033
0.5186,-0.0176,0.1931
0.5196,-0.0274,0.1789
0.524,-0.046,0.1691
0.522,-0.0582,0.1604
0.5259,-0.068,0.1491
0.5269,-0.0802,0.1384
0.5303,-0.089,0.113
0.5269,-0.1066,0.1066
0.5348,-0.1154,0.0919
0.5421,-0.1246,0.0695
0.5416,-0.1334,0.0592
0.5416,-0.1412,0.045
0.5446,-0.1442,0.0387
0.5372,-0.1456,0.0343
0.5314,-0.1505,0.0221
0.522,-0.1476,0.0201
0.5123,-0.1427,0.0177
0.5044,-0.1398,0.0197
0.502,-0.1378,0.0275
0.4976,-0.1266,0.0314
0.4976,-0.1207,0.0387
0.5001,-0.1139,0.0485
0.5059,-0.1061,0.0602
0.5132,-0.1041,0.0739
0.5319,-0.0929,0.0885
0.5538,-0.0856,0.1036
0.5743,-0.0827,0.1203
0.5968,-0.0807,0.1232
0.6163,-0.0758,0.1384
0.6442,-0.0758,0.156
0.6647,-0.0768,0.1716
0.6838,-0.0734,0.1872
0.7102,-0.0724,0.2028
0.7297,-0.0724,0.2224
0.7459,-0.0685,0.239
0.7688,-0.0621,0.2566
0.7893,-0.0513,0.2766
0.8064,-0.045,0.2864
0.8181,-0.0367,0.3001
0.8255,-0.0318,0.2967
0.8411,-0.0323,0.2893
0.8509,-0.0333,0.2849
0.8592,-0.0313,0.2766
0.868,-0.0259,0.262
0.8807,-0.0269,0.2444
0.891,-0.0284,0.2234
0.9032,-0.0352,0.1975
0.9203,-0.0421,0.1682
0.9369,-0.0445,0.1281
0.9609,-0.0548,0.0831
0.9897,-0.0568,0.0387
1.0214,-0.0577,-0.0043
1.061,-0.0617,-0.0507
1.0981,-0.0631,-0.0981
1.1269,-0.046,-0.147
1.1866,-0.0528,-0.1968
1.2471,-0.069,-0.2369
1.3009,-0.0724,-0.2799
1.358,-0.0675,-0.3155
1.424,-0.0646,-0.3517
1.4797,-0.0573,-0.3874
1.5315,-0.0445,-0.4108
1.5794,-0.0279,-0.4304
1.6268,-0.003,-0.4446
1.6698,0.0239,-0.4602
1.7079,0.0507,-0.4773
1.7148,0.0767,-0.4963
1.6346,0.0327,-0.5711
1.661,0.0234,-0.5818
1.6987,0.0429,-0.5589
1.7241,0.0654,-0.5413
1.748,0.0913,-0.5178
1.7758,0.1211,-0.4968
1.8135,0.1582,-0.4651
1.8486,0.1998,-0.4402
1.876,0.2472,-0.4235
1.9009,0.2926,-0.4069
1.9102,0.3444,-0.3991
1.9219,0.3987,-0.3864
1.9288,0.447,-0.3781
1.9259,0.491,-0.3678
1.919,0.5267,-0.3586
1.9087,0.5638,-0.3507
1.8916,0.5868,-0.3361
1.8814,0.5878,-0.3205
1.8784,0.5682,-0.2989
1.8638,0.5565,-0.2682
1.8374,0.5477,-0.2403
1.7934,0.555,-0.2119
1.748,0.5633,-0.1743
1.7021,0.5648,-0.1436
1.6488,0.5721,-0.1089
1.5931,0.575,-0.0761
1.5413,0.5706,-0.0478
1.4949,0.5672,-0.0126
1.4524,0.5555,0.026
1.4172,0.5428,0.0651
1.3864,0.5364,0.1101
1.3624,0.5223,0.1501
1.3444,0.5106,0.196
1.3302,0.4964,0.2337
1.3268,0.4729,0.2654
1.3229,0.4426,0.3055
1.3097,0.4099,0.3314
1.3082,0.3796,0.3578
1.3058,0.3561,0.3768
1.3131,0.3254,0.3963
1.3204,0.3,0.4125
1.3336,0.2746,0.4257
1.3497,0.2613,0.4257
1.3688,0.2447,0.4232
1.3977,0.232,0.4134
1.4265,0.2223,0.3963
1.4592,0.212,0.3724
1.4895,0.2047,0.3446
1.513,0.1998,0.3118
1.5325,0.191,0.2796
1.5447,0.1827,0.2449
1.5491,0.1812,0.2107
1.552,0.1817,0.1789
1.5418,0.1798,0.1442
1.5281,0.1807,0.1081
1.5315,0.1847,0.0831
1.532,0.1763,0.0534
1.5091,0.1572,0.0148
1.4714,0.1397,-0.0107
1.4362,0.1309,-0.0229
1.4035,0.1211,-0.0317
1.358,0.1196,-0.0351
1.3043,0.1177,-0.0463
1.2618,0.1211,-0.0532
1.2247,0.125,-0.059
1.1988,0.1206,-0.0585
1.1797,0.125,-0.0488
1.1645,0.126,-0.0439
1.1357,0.1318,-0.0312
1.104,0.1299,-0.0151
1.0766,0.1328,0.0026
1.0424,0.1362,0.026
1.0043,0.1406,0.0504
0.9618,0.1431,0.0783
0.9251,0.1392,0.1041
0.889,0.1362,0.1193
0.8479,0.1392,0.135
0.8098,0.145,0.1481
0.7786,0.1514,0.1545
0.7419,0.1543,0.1594
0.7087,0.1593,0.1662
0.6857,0.1617,0.1677
0.6691,0.1593,0.1726
0.6975,0.1612,0.1897
0.7678,0.191,0.2278
0.736,0.1998,0.2185
0.7141,0.1959,0.1941
0.7082,0.1895,0.1755
0.694,0.1778,0.1511
0.6882,0.1666,0.1364
0.6755,0.1602,0.1193
0.6633,0.1519,0.1032
0.6569,0.1382,0.0817
0.6442,0.1309,0.069
0.6334,0.1187,0.0612
0.6266,0.1109,0.048
0.6144,0.104,0.0377
0.6056,0.0913,0.026
0.5944,0.0791,0.0162
0.5856,0.0723,0.0099
0.5748,0.0684,0.0094
0.5607,0.061,0.0035
0.5475,0.0522,-0.0038
0.5421,0.0444,-0.0053
0.5289,0.0361,-0.0082
0.5167,0.0312,-0.0112
0.5064,0.017,-0.0146
0.4957,0.0053,-0.0156
0.4795,-0.0064,-0.0141
0.4693,-0.0167,-0.0097
0.4605,-0.0294,-0.0038
0.4512,-0.0303,0.0045
0.4493,-0.0323,0.0143
0.4546,-0.0377,0.0245
0.4664,-0.045,0.0426
0.4781,-0.0508,0.0592
0.4966,-0.0518,0.0768
0.5176,-0.0577,0.0939
0.5343,-0.0612,0.1145
0.5504,-0.0558,0.1286
0.5641,-0.0597,0.1447
0.5787,-0.0582,0.1589
0.5939,-0.0479,0.1677
0.611,-0.0425,0.1765
0.6188,-0.0386,0.1833
0.6359,-0.0313,0.1862
0.6462,-0.022,0.1872
0.6535,-0.0123,0.1906
0.6564,0.0014,0.1892
0.6638,0.0087,0.1843
0.6628,0.0175,0.1779
0.6638,0.0302,0.175
0.6623,0.0371,0.1687
0.6579,0.0449,0.1682
0.653,0.0562,0.1589
0.6467,0.0679,0.1511
0.6408,0.0772,0.1535
0.6389,0.0874,0.1462
0.6281,0.0957,0.1433
0.6173,0.1055,0.1433
0.6158,0.1157,0.1369
0.6115,0.1226,0.134
0.6041,0.1309,0.1325
0.6017,0.1367,0.135
0.6002,0.1416,0.1345
0.5968,0.145,0.133
0.6041,0.1455,0.1355
0.6007,0.145,0.1413
0.6027,0.1416,0.1403
0.6119,0.1436,0.1418
0.6144,0.1402,0.1442
0.6124,0.1382,0.1501
0.6154,0.1367,0.1506
0.6222,0.1358,0.1525
0.6251,0.1382,0.1521
0.6305,0.1392,0.1506
0.6359,0.1406,0.1516
0.6462,0.1436,0.1447
0.6545,0.1436,0.1486
0.6579,0.1489,0.156
0.6682,0.1563,0.1594
0.6789,0.1627,0.1604
0.6862,0.171,0.1594
0.6945,0.1798,0.1726
0.7062,0.1925,0.1755
0.7155,0.2032,0.1814
0.7258,0.213,0.1853
0.7375,0.2262,0.195
0.7512,0.2423,0.1975
0.763,0.2511,0.1965
0.7727,0.2647,0.2004
0.7947,0.2868,0.198
0.8089,0.2956,0.1955
0.824,0.3083,0.1901
0.8474,0.318,0.1818
0.87,0.3273,0.1731
0.8954,0.3332,0.1657
0.9242,0.3356,0.1555
0.95,0.3434,0.1433
0.9828,0.3439,0.1301
1.0141,0.341,0.1188
1.0473,0.3317,0.1027
1.0815,0.3219,0.0866
1.1152,0.317,0.0748
1.1631,0.3083,0.0704
1.1827,0.2892,0.0568
1.1983,0.2804,0.0284
1.2037,0.2731,0.0045
1.2051,0.2721,-0.0195
1.2105,0.2687,-0.0454
1.21,0.2711,-0.0639
1.2164,0.2775,-0.079
1.2208,0.2814,-0.0957
1.2369,0.2868,-0.1099
1.2506,0.2917,-0.1187
1.2667,0.2877,-0.1304
1.273,0.2824,-0.1343
1.278,0.2785,-0.1387
1.2848,0.2726,-0.1441
1.2828,0.2642,-0.1514
1.2838,0.2579,-0.1607
1.2853,0.252,-0.1699
1.2843,0.2359,-0.1802
1.2794,0.2154,-0.1856
1.277,0.1934,-0.1963
1.272,0.1671,-0.2017
1.2603,0.1372,-0.209
1.2442,0.1045,-0.2149
1.2305,0.0737,-0.2213
1.2222,0.0449,-0.2276
1.2144,0.0136,-0.232
1.2037,-0.0025,-0.2301
1.2164,-0.043,-0.2301
1.2208,-0.0861,-0.231
1.2286,-0.1134,-0.2403
1.2379,-0.1378,-0.2462
1.2432,-0.1608,-0.255
1.255,-0.1818,-0.2662
1.2672,-0.2097,-0.2784
1.2828,-0.2346,-0.2877
1.2975,-0.2541,-0.2984
1.3082,-0.2766,-0.3014
1.3219,-0.2957,-0.3067
1.3287,-0.3055,-0.3038
1.339,-0.3177,-0.294
1.3444,-0.3269,-0.2779
1.3493,-0.3304,-0.254
1.3502,-0.3377,-0.2213
1.3419,-0.3387,-0.1826
1.3346,-0.3338,-0.1362
1.3224,-0.3211,-0.0859
1.3058,-0.3035,-0.04
1.2877,-0.2845,0.0045
1.273,-0.2585,0.0529
1.2589,-0.2317,0.1027
1.2486,-0.2028,0.1472
1.2491,-0.1721,0.1955
1.2569,-0.1491,0.2278
1.2799,-0.13,0.2571
1.3078,-0.1139,0.281
1.3454,-0.0958,0.3001
1.3957,-0.0836,0.3133
1.4514,-0.0739,0.3162
1.5042,-0.0704,0.3157
1.555,-0.0646,0.3162
1.6092,-0.0612,0.3059
1.6605,-0.0577,0.2971
1.707,-0.0513,0.2805
1.7587,-0.0342,0.2683
1.7958,-0.0206,0.2566
1.8306,-0.0015,0.2478
1.8613,0.0161,0.239
1.8794,0.038,0.2346
1.8901,0.0645,0.2273
1.8901,0.0859,0.2176
1.8765,0.1089,0.2092
1.8525,0.1314,0.1984
1.8184,0.1494,0.1931
1.7753,0.1807,0.1857
1.7309,0.2174,0.174
1.6971,0.231,0.1613
1.6361,0.2325,0.1384
1.5564,0.2335,0.1188
1.4743,0.2389,0.1159
1.4089,0.2467,0.1164
1.3341,0.2511,0.111
1.2589,0.2618,0.1046
1.1998,0.2755,0.0988
1.1538,0.2829,0.089
1.1211,0.2897,0.0724
1.083,0.2882,0.0631
1.0649,0.279,0.0641
1.0424,0.2853,0.0612
1.0258,0.2892,0.0621
1.0131,0.2824,0.0719
0.9892,0.2799,0.0787
0.9609,0.2711,0.0885
0.9344,0.2564,0.1041
0.911,0.2413,0.1213
0.8807,0.2247,0.1433
0.8519,0.2091,0.1613
0.8308,0.1944,0.1838
0.8054,0.1734,0.2019
0.7903,0.1538,0.2141
0.7713,0.1392,0.221
0.7551,0.1221,0.2307
0.739,0.1079,0.2337
0.7214,0.0923,0.2298
0.7121,0.0796,0.2239
0.7004,0.0654,0.2171
0.6931,0.0439,0.2058
0.6818,0.0278,0.1941
0.6701,0.0097,0.1789
0.6608,-0.0108,0.1618
0.6574,-0.022,0.1467
0.6555,-0.0401,0.1271
0.6472,-0.0558,0.1002
0.6374,-0.0665,0.0792
0.6251,-0.0739,0.0621
0.6178,-0.0792,0.0387
0.6134,-0.0856,0.0148
0.6051,-0.09,0.0026
0.5948,-0.0939,-0.0161
0.5919,-0.0944,-0.0366
0.588,-0.0939,-0.0483
0.5831,-0.0934,-0.0581
0.5787,-0.089,-0.0673
0.5817,-0.0861,-0.0737
0.5787,-0.0856,-0.0761
0.5714,-0.0841,-0.0766
0.5782,-0.0778,-0.0732
0.5812,-0.0753,-0.0624
0.589,-0.0729,-0.0546
0.6007,-0.0612,-0.0444
0.6066,-0.0597,-0.0297
0.6217,-0.0543,-0.0126
0.6369,-0.0401,0.0021
0.6437,-0.0313,0.0182
0.6574,-0.0191,0.0411
0.6701,-0.0079,0.0656
0.6745,0.0048,0.0856
0.6828,0.0161,0.1012
0.6882,0.0273,0.1218
0.6877,0.0414,0.1384
0.6892,0.0557,0.1501
0.6828,0.0684,0.1613
0.675,0.0845,0.1648
0.6647,0.0957,0.1687
0.6501,0.106,0.1711
0.6379,0.1162,0.1701
0.6222,0.125,0.1682
0.6002,0.1328,0.1594
0.5851,0.1426,0.1467
0.5655,0.1485,0.1311
0.5455,0.1441,0.1203
0.5254,0.1318,0.0983
0.4927,0.1528,0.0739
0.4786,0.1528,0.0568
0.4649,0.1431,0.0407
0.4473,0.1362,0.0245
0.4361,0.1294,0.0089
0.4307,0.1275,-0.0024
0.4244,0.1201,-0.017
0.4228,0.1079,-0.0283
0.4283,0.0947,-0.0302
0.4312,0.0776,-0.039
0.4424,0.063,-0.0405
0.4546,0.0478,-0.0414
0.4693,0.0297,-0.039
0.4815,0.0097,-0.0366
0.4957,-0.0118,-0.0317
0.5088,-0.0279,-0.0234
0.6066,0.0048,0.0216
0.6134,0.0043,0.0397
0.5714,-0.0543,0.0172
0.5529,-0.0929,0.0123
0.5455,-0.1207,0.0123
0.5392,-0.1427,0.0148
0.5372,-0.1564,0.0275
0.5343,-0.1657,0.0563
0.546,-0.1662,0.0905
0.5558,-0.1569,0.1232
0.566,-0.1569,0.1511
0.5792,-0.151,0.174
0.5802,-0.1481,0.1955
0.5973,-0.1417,0.2127
0.6032,-0.1378,0.2268
0.6168,-0.1325,0.2381
0.6334,-0.1222,0.2488
0.6545,-0.1124,0.2527
0.6755,-0.1027,0.2547
0.6984,-0.0939,0.2542
0.7229,-0.0817,0.2459
0.7468,-0.0739,0.2332
0.7722,-0.067,0.2244
0.7971,-0.0612,0.2141
0.8235,-0.0523,0.1911
0.8484,-0.0465,0.1667
0.8724,-0.0435,0.1428
0.8954,-0.0357,0.1101
0.9173,-0.0264,0.0812
0.9374,-0.0084,0.0504
0.9609,0.0087,0.0192
0.9838,0.0234,-0.0058
1.0092,0.0429,-0.038
1.039,0.0566,-0.0742
1.0762,0.0693,-0.1148
1.1206,0.0816,-0.1587
1.1695,0.0933,-0.2017
1.2276,0.1016,-0.2442
1.2892,0.1235,-0.275
1.3693,0.1235,-0.3043
1.4514,0.1177,-0.3302
1.5345,0.1221,-0.3498
1.6127,0.1265,-0.3576
1.6903,0.1289,-0.3722
1.7592,0.1333,-0.3869
1.77,0.1309,-0.4147
1.7167,0.0757,-0.4885
1.7812,0.0596,-0.4695
1.8428,0.0601,-0.4294
1.8916,0.064,-0.402
1.9332,0.0713,-0.3673
1.9801,0.085,-0.3302
2.0294,0.0972,-0.2989
2.0631,0.1113,-0.2633
2.1017,0.126,-0.2296
2.1325,0.1416,-0.1968
2.1667,0.1568,-0.1699
2.197,0.1715,-0.1402
2.2298,0.1827,-0.1245
2.2493,0.2027,-0.1128
2.2679,0.2232,-0.101
2.2835,0.2516,-0.0927
2.2898,0.2804,-0.0913
2.2894,0.3224,-0.0815
2.2698,0.3581,-0.0903
2.2239,0.3678,-0.1216
2.1765,0.3605,-0.1504
2.1355,0.3801,-0.1553
2.0988,0.405,-0.1641
2.0646,0.4216,-0.1704
2.0309,0.4411,-0.1714
2.0025,0.4621,-0.1743
1.9825,0.4861,-0.1778
1.9576,0.511,-0.1758
1.9429,0.5315,-0.1699
1.9366,0.5477,-0.1568
1.9327,0.5589,-0.1475
1.9122,0.556,-0.1348
1.8818,0.5735,-0.1167
1.8486,0.597,-0.0839
1.8237,0.599,-0.06
1.7924,0.5995,-0.0283
1.767,0.5917,0.0133
1.7416,0.5818,0.0573
1.7197,0.5682,0.1032
1.6952,0.5584,0.1496
1.6649,0.5384,0.1975
1.6337,0.5208,0.2356
1.6004,0.5062,0.2688
1.5682,0.4881,0.2957
1.5301,0.4729,0.3187
1.4881,0.4519,0.3368
1.4436,0.4314,0.3465
1.3952,0.4089,0.3485
1.3424,0.3796,0.3387
1.2926,0.3532,0.3255
1.2418,0.3278,0.3094
1.192,0.3029,0.284
1.1382,0.2765,0.2615
1.0942,0.254,0.2351
1.0546,0.2359,0.2156
1.0224,0.2071,0.1887
0.9931,0.1705,0.153
0.9609,0.1348,0.1306
0.9955,0.1211,0.1438
0.9945,0.1192,0.1555
0.9544,0.1021,0.1281
0.9271,0.0781,0.1022
0.9027,0.0649,0.0773
0.8773,0.0547,0.0548
0.8529,0.0346,0.0397
0.8279,0.0117,0.0314
0.7996,-0.0093,0.0182
0.7674,-0.0338,0.0128
0.7287,-0.0558,0.0162
0.7048,-0.0743,0.027
0.6794,-0.0973,0.0367
0.6491,-0.1163,0.0543
0.6271,-0.1388,0.069
0.6017,-0.1515,0.0841
0.5797,-0.1687,0.1036
0.5631,-0.1818,0.1213
0.5402,-0.1941,0.1428
0.522,-0.2053,0.1564
0.501,-0.2121,0.1682
0.482,-0.2185,0.1809
0.46,-0.215,0.1887
0.4405,-0.2116,0.1936
0.4209,-0.2092,0.1955
0.396,-0.2004,0.1945
0.3764,-0.1804,0.1892
0.3681,-0.151,0.1843
0.3677,-0.1168,0.1892
0.3696,-0.0949,0.1755
0.373,-0.0743,0.1613
0.3916,-0.0548,0.1433
0.4116,-0.0294,0.1188
0.4292,-0.002,0.0944
0.4424,0.0209,0.0739
0.4551,0.0439,0.0494
0.4673,0.0615,0.0226
0.4727,0.0762,0.0079
0.4756,0.0942,-0.0097
0.4737,0.1113,-0.018
0.4717,0.1211,-0.0297
0.4649,0.1328,-0.0434
0.4659,0.1402,-0.0468
0.4546,0.1509,-0.0541
0.4551,0.1553,-0.0478
0.4483,0.1607,-0.04
0.4478,0.1715,-0.0341
0.4458,0.1744,-0.0234
0.4434,0.1715,-0.0112
0.4424,0.1724,-0.0024
0.4419,0.1734,0.0162
0.4458,0.1763,0.0338
0.4444,0.1788,0.0499
0.4498,0.1788,0.0665
0.4585,0.1783,0.087
0.4698,0.1734,0.1096
0.4844,0.1715,0.1257
0.5005,0.1612,0.1379
0.5054,0.1807,0.1491
0.5269,0.1837,0.1687
0.5529,0.1749,0.1838
0.5695,0.171,0.1945
0.5944,0.169,0.2009
0.6134,0.1617,0.2058
0.6315,0.1641,0.2053
0.6535,0.1607,0.2033
0.6735,0.1587,0.2033
0.6872,0.1558,0.1906
0.7033,0.1543,0.1828
0.7209,0.1533,0.1799
0.7399,0.148,0.1731
0.7488,0.1426,0.1623
0.7674,0.1367,0.153
0.783,0.1358,0.1447
0.7962,0.1304,0.1408
0.805,0.1231,0.1291
0.8181,0.1143,0.1237
0.8303,0.1094,0.1213
0.8338,0.1001,0.1179
0.8406,0.0889,0.1125
0.849,0.082,0.1105
0.8534,0.0781,0.1071
0.8524,0.0693,0.1022
0.8548,0.0689,0.1027
0.8573,0.0693,0.1032
0.8563,0.0625,0.1057
0.8582,0.0596,0.1062
0.8592,0.0601,0.1145
0.8568,0.0601,0.1257
0.8602,0.064,0.1345
0.8558,0.0713,0.1496
0.8563,0.0806,0.1599
0.8587,0.0933,0.1726
0.8519,0.1055,0.1911
0.8474,0.1157,0.2053
0.846,0.1299,0.2171
0.8411,0.1406,0.2381
0.8347,0.1509,0.2547
0.8338,0.1632,0.2698
0.8279,0.1759,0.2918
0.8176,0.1866,0.3138
0.8108,0.1993,0.3348
0.8054,0.2066,0.3519
0.8001,0.213,0.3695
0.7952,0.2188,0.3841
0.7864,0.2286,0.391
0.7893,0.2384,0.4012
0.7888,0.231,0.4071
0.7903,0.2384,0.4061
0.7996,0.2379,0.4086
0.8084,0.2354,0.41
0.8225,0.2379,0.4037
0.8382,0.2335,0.3944
0.849,0.2271,0.388
0.8646,0.2301,0.3705
0.8758,0.2281,0.3558
0.89,0.2281,0.3392
0.9095,0.233,0.3084
0.9305,0.2442,0.2796
0.952,0.2506,0.2522
0.9701,0.255,0.2176
0.9877,0.2628,0.1838
1.0126,0.2702,0.1472
1.0253,0.2726,0.1057
1.0307,0.2755,0.066
1.0405,0.2799,0.0236
1.04,0.277,-0.0161
1.0434,0.2746,-0.0551
1.04,0.2672,-0.0922
1.0273,0.255,-0.1402
1.019,0.2491,-0.1846
1.0082,0.2403,-0.2227
0.9945,0.2301,-0.2599
0.9848,0.2179,-0.2979
0.9726,0.2042,-0.3224
0.9657,0.1886,-0.3454
0.9652,0.1671,-0.3698
0.9604,0.148,-0.3874
0.9672,0.124,-0.3962
0.9779,0.1045,-0.403
0.9848,0.0825,-0.4035
0.9999,0.0497,-0.4025
1.0278,0.0078,-0.404
1.06,-0.024,-0.403
1.0815,-0.0528,-0.4001
1.104,-0.0778,-0.4079
1.1172,-0.0963,-0.403
1.1269,-0.1124,-0.3962
1.1387,-0.1286,-0.3908
1.1572,-0.1422,-0.38
1.1827,-0.1583,-0.36
1.2213,-0.1843,-0.3361
1.2652,-0.2097,-0.3111
1.3156,-0.2331,-0.2833
1.3605,-0.2541,-0.2564
1.4128,-0.281,-0.2306
1.4587,-0.2991,-0.2022
1.4998,-0.3152,-0.1778
1.5379,-0.3269,-0.1533
1.5701,-0.3382,-0.1348
1.5975,-0.3426,-0.1235
1.619,-0.346,-0.1182
1.6366,-0.3348,-0.1133
1.6459,-0.3201,-0.1148
1.6517,-0.2991,-0.1133
1.659,-0.2752,-0.1177
1.6634,-0.2419,-0.1192
1.6649,-0.2053,-0.1196
1.662,-0.1691,-0.1148
1.6586,-0.1354,-0.1094
1.6527,-0.1017,-0.0976
1.6405,-0.0646,-0.0893
1.6327,-0.0289,-0.0771
1.6297,0.017,-0.0615
1.6283,0.063,-0.0424
1.6273,0.1035,-0.0244
1.6424,0.148,0.0026
1.6683,0.1842,0.0402
1.6913,0.21,0.0743
1.7128,0.2354,0.1007
1.7114,0.2569,0.1252
1.704,0.2697,0.1442
1.6942,0.2848,0.1623
1.6844,0.2902,0.1726
1.6673,0.2995,0.1809
1.6473,0.2995,0.1872
1.6263,0.3009,0.196
1.5946,0.3044,0.2063
1.5623,0.2941,0.2102
1.5179,0.3019,0.2122
1.4802,0.32,0.2171
1.4568,0.3185,0.2337
1.4377,0.32,0.2473
1.4206,0.3205,0.2547
1.4035,0.3205,0.2605
1.3913,0.3214,0.2664
1.384,0.3229,0.2703
1.3796,0.3161,0.2688
1.3806,0.3014,0.2649
1.3654,0.2809,0.2586
1.3497,0.2668,0.2483
1.3312,0.2516,0.2425
1.3131,0.2364,0.24
1.2911,0.2203,0.2322
1.2657,0.2061,0.2171
1.2506,0.1837,0.1994
1.2266,0.1553,0.1862
1.21,0.1304,0.1765
1.19,0.1055,0.1696
1.17,0.0752,0.1667
1.1494,0.0463,0.1643
1.125,0.0126,0.154
1.1011,-0.0162,0.1584
1.0698,-0.0435,0.1648
1.0351,-0.0719,0.1677
0.9989,-0.088,0.1755
0.9648,-0.1002,0.176
0.9247,-0.1144,0.1799
0.8856,-0.13,0.1794
0.8455,-0.1354,0.1799
0.8054,-0.1408,0.176
0.7732,-0.1452,0.1745
0.7355,-0.1456,0.1638
0.7009,-0.1452,0.1569
0.6686,-0.1442,0.1472
0.6369,-0.1403,0.135
0.61,-0.1369,0.1228
0.589,-0.1305,0.1081
0.5651,-0.1271,0.0919
0.5504,-0.1168,0.0797
0.5314,-0.109,0.0714
0.5171,-0.1046,0.0612
0.5001,-0.0914,0.0524
0.4917,-0.0831,0.0455
0.4869,-0.0695,0.0411
0.4888,-0.0558,0.0358
0.4903,-0.046,0.0284
0.4922,-0.0333,0.0245
0.4957,-0.0064,0.0206
0.5035,0.0121,0.0143
0.5162,0.0297,0.0099
0.5259,0.0458,0.0055
0.5421,0.0664,-0.0029
0.5538,0.0855,-0.0097
0.567,0.1079,-0.0131
0.5846,0.1284,-0.0204
0.5973,0.1436,-0.0224
0.6105,0.1577,-0.0297
0.6158,0.1739,-0.0366
0.6232,0.192,-0.0385
0.6305,0.2037,-0.0458
0.63,0.2125,-0.0468
0.632,0.2271,-0.0502
0.6256,0.2408,-0.0493
0.6241,0.2501,-0.0493
0.6134,0.2599,-0.0512
0.6041,0.2682,-0.0473
0.5905,0.279,-0.0414
0.5782,0.2848,-0.0273
0.5568,0.2887,-0.0175
0.5421,0.2892,-0.0063
0.525,0.2887,0.007
0.5093,0.2809,0.0187
0.4957,0.2741,0.0358
0.4795,0.2603,0.0548
0.4693,0.2432,0.0739
0.4522,0.2237,0.091
0.4449,0.2008,0.1057
0.441,0.172,0.1213
0.4312,0.1377,0.1345
0.4214,0.1094,0.1467
0.4121,0.0742,0.1584
0.4062,0.0351,0.1657
0.3974,-0.0035,0.1706
0.3926,-0.0445,0.1799
0.3843,-0.0768,0.1706
0.3755,-0.1085,0.1687
0.3618,-0.1422,0.1696
0.3476,-0.1706,0.1535
0.3325,-0.2024,0.1457
0.3114,-0.2312,0.132
0.2919,-0.2541,0.1105
0.2733,-0.2766,0.091
0.2768,-0.2888,0.0783
0.3036,-0.2801,0.0739
0.3628,-0.1765,0.1091
0.354,-0.1583,0.0773
0.3413,-0.1818,0.0157
0.3301,-0.1945,-0.0165
0.31,-0.2028,-0.0473
0.2914,-0.2136,-0.0664
0.2724,-0.2146,-0.08
0.2489,-0.2224,-0.0898
0.2191,-0.2199,-0.0922
0.1971,-0.2209,-0.0952
0.1751,-0.218,-0.0917
0.1375,-0.2136,-0.0864
0.1043,-0.2053,-0.0815
0.0647,-0.1667,-0.0742
0.0632,-0.0973,-0.0571
0.1146,-0.0386,-0.0497
0.1868,-0.003,-0.0449
0.2763,0.0175,-0.0429
0.3535,0.0327,-0.0522
0.4253,0.0444,-0.0664
0.4883,0.0458,-0.0947
0.5333,0.0478,-0.1358
0.5758,0.0557,-0.1778
0.6168,0.0708,-0.2203
0.6447,0.0835,-0.2623
0.674,0.0952,-0.3058
0.7116,0.1099,-0.3522
0.7571,0.1314,-0.3957
0.8098,0.1494,-0.4475
0.8729,0.1661,-0.4929
0.953,0.1773,-0.535
1.0424,0.1822,-0.5662
1.1338,0.1881,-0.5882
1.233,0.19,-0.6043
1.2926,0.1572,-0.6258
1.3131,0.0693,-0.6752
1.4021,0.0517,-0.6527
1.4934,0.0449,-0.5984
1.5838,0.0331,-0.5447
1.6839,0.0253,-0.4817
1.7914,0.0175,-0.4152
1.8945,0.0161,-0.3561
1.984,0.0239,-0.3106
2.0656,0.0385,-0.2877
2.1423,0.0586,-0.2818
2.2253,0.0747,-0.2745
2.2996,0.0903,-0.2652
2.3666,0.1128,-0.2642
2.4501,0.1328,-0.2496
2.5772,0.1671,-0.1948
2.6866,0.19,-0.1265
2.7902,0.2193,-0.0668
2.8913,0.2428,-0.0053
2.9852,0.2721,0.0387
3.0814,0.3087,0.0617
3.1659,0.3498,0.0895
3.2241,0.405,0.0958
3.2627,0.4612,0.0973
3.2715,0.5296,0.0993
3.248,0.6185,0.0929
3.1865,0.7055,0.0626
3.079,0.7993,0.0304
2.9358,0.8741,-0.0209
2.7629,0.9146,-0.081
2.603,0.922,-0.1421
2.4653,0.8828,-0.1992
2.3627,0.8267,-0.2325
2.2605,0.7583,-0.2359
2.1594,0.6982,-0.234
2.0607,0.6547,-0.233
1.9566,0.6166,-0.2301
1.8589,0.5735,-0.2213
1.7548,0.5359,-0.2007
1.6522,0.4959,-0.1787
1.5608,0.4563,-0.1392
1.4778,0.427,-0.0815
1.4016,0.4006,-0.0258
1.3346,0.3752,0.0485
1.2725,0.3551,0.1408
1.2227,0.3371,0.2298
1.1675,0.318,0.3207
1.1206,0.2985,0.4022
1.0854,0.2785,0.4716
1.062,0.2633,0.5332
1.0458,0.2481,0.5845
1.0351,0.2325,0.6143
1.0287,0.2218,0.6333
1.0199,0.2061,0.6451
1.0072,0.1886,0.6446
1.0024,0.1749,0.6353
0.9999,0.1651,0.6187
1.0033,0.146,0.5889
1.0043,0.1255,0.5474
1.0004,0.1143,0.5077
1.0087,0.0899,0.4672
1.0204,0.063,0.412
1.0229,0.0483,0.3543
1.0234,0.041,0.2928
1.0131,0.0239,0.2283
1.0024,0.0053,0.1716
0.9921,-0.0137,0.1076
0.9755,-0.0342,0.0377
0.956,-0.0534,-0.0268
0.9398,-0.0641,-0.0786
0.9207,-0.0748,-0.1294
0.8998,-0.0895,-0.1792
0.8797,-0.1051,-0.2164
0.8479,-0.1168,-0.2296
0.8152,-0.1246,-0.2467
0.7825,-0.1354,-0.2506
0.7527,-0.1422,-0.2472
0.715,-0.15,-0.2345
0.6755,-0.1569,-0.2056
0.6281,-0.1599,-0.1699
0.5846,-0.1657,-0.124
0.5372,-0.1735,-0.0742
0.4893,-0.1853,-0.0317
0.4493,-0.1921,0.0114
0.4096,-0.1965,0.0529
0.3667,-0.198,0.1076
0.3354,-0.2053,0.1569
0.2973,-0.2116,0.2019
0.2665,-0.215,0.2503
0.2406,-0.2155,0.2986
0.2172,-0.2209,0.3387
0.1942,-0.2185,0.3729
0.1795,-0.2302,0.3978
0.1702,-0.2302,0.4291
0.1615,-0.2058,0.4579
0.1712,-0.1892,0.4819
0.1888,-0.1799,0.5043
0.2039,-0.1765,0.5175
0.2221,-0.1687,0.519
0.2362,-0.1648,0.5165
0.2577,-0.1583,0.4994
0.2802,-0.1549,0.4789
0.2978,-0.1378,0.4491
0.3261,-0.1305,0.4125
0.3452,-0.1173,0.368
0.3594,-0.1046,0.3221
0.3681,-0.0958,0.2639
0.3769,-0.0817,0.2102
0.3818,-0.0704,0.154
0.3891,-0.0607,0.1022
0.3926,-0.0445,0.0485
0.3965,-0.0352,0.0045
0.3974,-0.0274,-0.0331
0.3994,-0.0162,-0.0683
0.3999,0.0019,-0.0957
0.4062,0.0156,-0.125
0.4165,0.0292,-0.1465
0.4048,0.0645,-0.1738
0.4244,0.0615,-0.1904
0.4434,0.0713,-0.1885
0.4493,0.0957,-0.1904
0.4498,0.1065,-0.2027
0.4703,0.1245,-0.2002
0.4859,0.1431,-0.1934
0.5098,0.1666,-0.1851
0.5289,0.1881,-0.1719
0.5499,0.2188,-0.1572
0.5695,0.2384,-0.1445
0.5919,0.2608,-0.1304
0.608,0.2863,-0.1162
0.6202,0.3107,-0.104
0.6344,0.3278,-0.0927
0.6476,0.3507,-0.0883
0.6623,0.3713,-0.0795
0.6701,0.385,-0.08
0.6657,0.3952,-0.0849
0.6628,0.4035,-0.0913
0.6579,0.4109,-0.0986
0.6511,0.4104,-0.1157
0.6496,0.405,-0.1235
0.6486,0.3928,-0.1318
0.6428,0.3683,-0.1392
0.6339,0.3454,-0.1445
0.6339,0.3224,-0.1504
0.6359,0.2951,-0.1436
0.6374,0.2731,-0.1318
0.6491,0.2413,-0.1182
0.6652,0.2091,-0.0942
0.6853,0.1773,-0.0722
0.7023,0.1465,-0.0522
0.6984,0.1089,-0.0322
0.7106,0.0845,-0.0126
0.738,0.0601,0.0114
0.7688,0.0331,0.0367
0.804,0.0058,0.0558
0.8367,-0.0196,0.0739
0.8753,-0.0382,0.0846
0.9134,-0.0558,0.0861
0.9579,-0.07,0.0763
0.9975,-0.0778,0.0538
1.0361,-0.0846,0.025
1.0747,-0.0914,-0.0073
1.1167,-0.0929,-0.0502
1.1611,-0.0953,-0.0961
1.209,-0.0973,-0.1528
1.2637,-0.1027,-0.2223
1.3117,-0.1041,-0.2857
1.3556,-0.0993,-0.3551
1.3967,-0.0988,-0.4255
1.4367,-0.0949,-0.4934
1.4734,-0.09,-0.554
1.5076,-0.087,-0.6028
1.5408,-0.0851,-0.6498
1.5735,-0.0836,-0.6854
1.6014,-0.087,-0.7138
1.6302,-0.0939,-0.7225
1.6571,-0.1061,-0.7289
1.6796,-0.1178,-0.7265
1.6971,-0.1266,-0.7113
1.7123,-0.1334,-0.6918
1.7206,-0.1349,-0.663
1.7187,-0.1369,-0.6268
1.6634,-0.1369,-0.598
1.6146,-0.1388,-0.5721
1.6463,-0.1246,-0.4641
1.6708,-0.1027,-0.3547
1.6932,-0.0734,-0.2467
1.7192,-0.0435,-0.1314
1.7426,-0.0069,-0.0146
1.7729,0.0278,0.1036
1.8007,0.0649,0.2239
1.8369,0.0962,0.3285
1.8745,0.1221,0.4222
1.9072,0.1402,0.5097
1.9376,0.1509,0.584
1.9727,0.1602,0.6373
1.9991,0.1656,0.6754
2.0324,0.1646,0.6978
2.0602,0.1597,0.7047
2.0807,0.1563,0.6964
2.1081,0.1499,0.6705
2.1316,0.1436,0.6299
2.1516,0.1348,0.5786
2.1711,0.1323,0.519
2.1863,0.1231,0.4535
2.2126,0.1152,0.3822
2.2303,0.1113,0.3079
2.243,0.1025,0.2332
2.2562,0.0889,0.1604
2.2713,0.0801,0.089
2.2801,0.0684,0.027
2.283,0.0527,-0.0248
2.2903,0.0327,-0.0634
2.2923,0.0058,-0.0932
2.2913,-0.0323,-0.1138
2.2669,-0.0763,-0.1235
2.2014,-0.1159,-0.1548
2.1286,-0.1412,-0.1802
2.0802,-0.1628,-0.1577
2.0529,-0.1853,-0.1049
2.0333,-0.1931,-0.0566
1.9908,-0.2009,-0.0248
1.9332,-0.2033,-0.0283
1.8735,-0.1955,-0.0312
1.8203,-0.198,-0.0263
1.769,-0.1955,-0.0097
1.707,-0.1994,0.0138
1.6439,-0.2053,0.0382
1.5862,-0.2131,0.0787
1.5354,-0.2209,0.1223
1.4836,-0.2258,0.1633
1.4392,-0.2302,0.1965
1.3933,-0.2307,0.2244
1.3439,-0.2238,0.2508
1.2872,-0.219,0.2605
1.2369,-0.2116,0.2781
1.1729,-0.1984,0.3001
1.1103,-0.1833,0.3138
1.0546,-0.1726,0.325
0.9975,-0.153,0.3294
0.9696,-0.0963,0.3587
0.9203,-0.0573,0.3734
0.8797,-0.0548,0.3626
0.8406,-0.0499,0.348
0.7967,-0.0504,0.326
0.7698,-0.0425,0.2986
0.7375,-0.0377,0.2615
0.7023,-0.0245,0.2322
0.6784,-0.0181,0.2063
0.656,-0.0108,0.177
0.6276,-0.0049,0.1428
0.6032,-0.0001,0.1149
0.5856,0.0112,0.0812
0.5709,0.0195,0.048
0.5509,0.0307,0.0167
0.5333,0.0414,-0.0107
0.522,0.0497,-0.0405
0.5176,0.0625,-0.0683
0.504,0.0718,-0.0908
0.4957,0.0816,-0.1099
0.4859,0.0899,-0.1304
0.4776,0.1011,-0.1455
0.4639,0.1162,-0.1587
0.4512,0.1323,-0.1636
0.4366,0.1411,-0.1611
0.4209,0.1612,-0.1587
0.4077,0.1744,-0.1582
0.3926,0.1807,-0.148
0.3857,0.1959,-0.1328
0.376,0.2003,-0.1177
0.3642,0.2017,-0.0996
0.3525,0.2061,-0.0766
0.3408,0.2076,-0.0532
0.3325,0.2013,-0.0327
0.3193,0.2022,-0.0029
0.3022,0.1978,0.0221
0.2738,0.1871,0.045
0.2553,0.1798,0.0646
0.2313,0.1724,0.088
0.2005,0.1577,0.1086
0.182,0.1402,0.134
0.1776,0.1201,0.1545
0.1663,0.0942,0.1672
0.1619,0.0796,0.1731
0.1629,0.0693,0.1765
0.1673,0.0497,0.1877
0.1702,0.0307,0.1862
0.1766,0.0112,0.1833
0.1893,-0.0045,0.1794
0.1932,-0.0206,0.1745
0.2005,-0.0362,0.1682
0.2088,-0.0435,0.1584
0.2172,-0.0577,0.154
0.2221,-0.0724,0.1447
0.2353,-0.0827,0.1433
0.2436,-0.0939,0.1438
0.2533,-0.1066,0.1545
0.2626,-0.1246,0.1569
0.2763,-0.1383,0.1657
0.2987,-0.151,0.1755
0.3095,-0.1638,0.1945
0.3217,-0.177,0.2082
0.3418,-0.1921,0.2288
0.3594,-0.2087,0.2566
0.3794,-0.2155,0.2869
0.3906,-0.2273,0.3113
0.4013,-0.239,0.3358
0.4165,-0.2439,0.3592
0.4302,-0.2517,0.3817
0.4424,-0.259,0.4007
0.4571,-0.2669,0.4159
0.4703,-0.2698,0.4232
0.4844,-0.2727,0.4296
0.4913,-0.2546,0.4428
0.5392,-0.2531,0.4535
0.568,-0.2752,0.453
0.5875,-0.2722,0.4482
0.6105,-0.2654,0.4321
0.6423,-0.261,0.4198
0.6745,-0.2502,0.4056
0.7087,-0.2385,0.388
0.7444,-0.2282,0.3641
0.7791,-0.2194,0.3363
0.8128,-0.2111,0.3011
0.845,-0.2053,0.2688
0.8768,-0.2038,0.2395
0.9032,-0.198,0.2102
0.9349,-0.2009,0.1916
0.9638,-0.2077,0.176
0.996,-0.2102,0.1564
1.016,-0.2146,0.1438
1.04,-0.2273,0.1355
1.0615,-0.2365,0.1164
1.0732,-0.2497,0.1022
1.0835,-0.2664,0.0885
1.0942,-0.2869,0.0827
1.1074,-0.3108,0.0822
1.1265,-0.3367,0.0792
1.1377,-0.3689,0.0914
1.1519,-0.4027,0.1041
1.1577,-0.431,0.132
1.1616,-0.4667,0.1618
1.1655,-0.5043,0.1955
1.1685,-0.5336,0.2361
1.1655,-0.5654,0.2742
1.1626,-0.579,0.3236
1.1455,-0.5698,0.3656
1.1421,-0.6064,0.4076
1.1372,-0.6299,0.4433
1.1221,-0.6519,0.4687
1.1011,-0.666,0.4858
1.083,-0.6777,0.4931
1.0575,-0.6846,0.4877
1.0258,-0.6885,0.4682
0.9902,-0.687,0.4374
0.955,-0.6821,0.388
0.9217,-0.6714,0.3299
0.8856,-0.6577,0.2586
0.8602,-0.6338,0.1745
0.8367,-0.6079,0.0817
0.8162,-0.5805,-0.0234
0.8098,-0.5453,-0.1392
0.8089,-0.5146,-0.2682
0.8211,-0.4911,-0.3962
0.8529,-0.4711,-0.5286
0.8939,-0.4374,-0.6542
0.933,-0.3744,-0.7675
0.9726,-0.3362,-0.8863
1.0453,-0.3186,-1.0206
1.1113,-0.2624,-1.1266
1.1973,-0.1867,-1.1877
1.2785,-0.109,-1.2205
1.3502,-0.0636,-1.2772
1.3234,-0.0866,-1.4013
1.3717,-0.1124,-1.4862
1.4651,-0.1095,-1.4946
1.5325,-0.0983,-1.5073
1.6014,-0.0763,-1.5005
1.6659,-0.0489,-1.4731
1.725,-0.0152,-1.4271
1.79,0.0268,-1.3783
1.8457,0.0654,-1.3348
1.9004,0.105,-1.3011
1.941,0.1485,-1.2595
1.9747,0.1939,-1.2136
2.0089,0.2476,-1.1564
2.0226,0.3044,-1.0876
2.0172,0.3747,-1.0016
2.0221,0.446,-0.8887
2.0504,0.5301,-0.7177
2.0851,0.6195,-0.5095
2.1081,0.6948,-0.3195
2.1037,0.7539,-0.1826
2.0832,0.8018,-0.0795
2.0309,0.8428,0.0148
1.9532,0.8858,0.113
1.8618,0.9083,0.1135
1.7328,0.9132,0.0953
1.5931,0.8863,0.0704
1.5169,0.7485,0.049
1.4694,0.5496,0.0582
1.385,0.4343,0.0631
1.3375,0.3473,0.0675
1.3107,0.2668,0.0924
1.2657,0.1778,0.0675
1.2393,0.1245,0.0597
1.2237,0.0811,0.0494
1.211,0.0419,0.0104
1.1973,0.0034,-0.0234
1.19,-0.0338,-0.0527
1.1734,-0.0685,-0.0756
1.1509,-0.1051,-0.0922
1.1382,-0.1461,-0.0991
1.1113,-0.1926,-0.0976
1.0869,-0.2541,-0.0859
1.0659,-0.3152,-0.0732
1.0463,-0.3675,-0.0664
1.0263,-0.4169,-0.0629
1.0009,-0.4745,-0.0576
0.9648,-0.5322,-0.0468
0.9374,-0.5707,-0.0473
0.9129,-0.6196,-0.0434
0.8841,-0.6836,-0.0346
0.8675,-0.7452,-0.0141
0.8665,-0.8058,0.0099
0.8524,-0.8415,0.028
0.846,-0.8752,0.046
0.8484,-0.9035,0.066
0.8563,-0.9245,0.0602
0.8895,-0.9582,0.0529
0.9291,-0.987,0.0499
0.9823,-1.0125,0.0436
1.0405,-1.0227,0.0314
1.1055,-1.0125,0.0011
1.188,-1.0007,-0.0268
1.2809,-0.9739,-0.0434
1.3693,-0.9206,-0.0566
1.4372,-0.8419,-0.079
1.4548,-0.7428,-0.1382
1.4475,-0.669,-0.2124
1.4543,-0.6309,-0.2711
1.4881,-0.6021,-0.3097
1.5301,-0.5678,-0.3307
1.5711,-0.5278,-0.3307
1.6273,-0.4902,-0.3214
1.6815,-0.4281,-0.2266
1.7143,-0.3557,-0.2119
1.7348,-0.2928,-0.3067
1.7519,-0.2204,-0.3478
1.768,-0.1422,-0.3991
1.7768,-0.0748,-0.4636
1.787,-0.0015,-0.5051
1.8071,0.0703,-0.5428
1.8267,0.1314,-0.5789
1.8545,0.1768,-0.5936
1.8726,0.232,-0.5994
1.876,0.2829,-0.5975
1.8775,0.3224,-0.5906
1.876,0.3537,-0.575
1.8555,0.3757,-0.5599
1.8418,0.3899,-0.5423
1.8189,0.4104,-0.5168
1.7875,0.4177,-0.4778
1.746,0.4245,-0.4372
1.6971,0.428,-0.3971
1.6332,0.4143,-0.3551
1.5628,0.3908,-0.316
1.4905,0.359,-0.2916
1.4138,0.3039,-0.2623
1.362,0.2335,-0.2266
1.341,0.1661,-0.169
1.3263,0.1245,-0.1035
1.296,0.104,-0.0668
1.2608,0.0835,-0.0502
1.2296,0.0507,-0.04
1.192,0.0229,-0.0317
1.1587,0.0014,-0.0278
1.1226,-0.0235,-0.0312
1.0869,-0.0465,-0.0341
1.0536,-0.068,-0.0327
1.0151,-0.0846,-0.0341
0.9799,-0.1041,-0.0331
0.9344,-0.1212,-0.04
0.8851,-0.1383,-0.0478
0.8391,-0.1564,-0.059
0.7893,-0.174,-0.0722
0.7346,-0.1921,-0.0859
0.6789,-0.2092,-0.1025
0.6232,-0.2258,-0.1231
0.5651,-0.2404,-0.1392
0.5176,-0.2531,-0.1489
0.4624,-0.2614,-0.1607
0.4106,-0.2698,-0.166
0.3633,-0.2718,-0.168
0.3114,-0.2737,-0.1641
0.2729,-0.2718,-0.1636
0.2309,-0.2722,-0.1538
0.1995,-0.2703,-0.1421
0.1751,-0.2688,-0.126
0.1522,-0.2439,-0.0986
0.1419,-0.2175,-0.0673
0.1497,-0.2097,-0.0414
0.1839,-0.2014,-0.0038
0.2553,-0.1789,0.045
0.3476,-0.1588,0.0983
0.4532,-0.1452,0.1525
0.5577,-0.1373,0.1941
0.6413,-0.1325,0.2322
0.7111,-0.1256,0.263
0.7742,-0.1271,0.2869
0.8176,-0.1242,0.3045
0.8495,-0.1266,0.3103
0.8792,-0.1295,0.3142
0.9007,-0.131,0.3118
0.9085,-0.1305,0.3001
0.9188,-0.1315,0.282
0.9295,-0.1378,0.2561
0.9315,-0.1364,0.2307
0.9325,-0.1344,0.2077
0.9378,-0.1364,0.1779
0.9452,-0.1339,0.1467
0.9505,-0.1315,0.1125
0.9535,-0.1251,0.0763
0.9569,-0.1203,0.0441
0.9638,-0.1183,0.0109
0.975,-0.1085,-0.0136
0.9809,-0.1032,-0.0449
0.9887,-0.0983,-0.0727
0.996,-0.088,-0.0961
1.0038,-0.0773,-0.1192
1.0195,-0.0709,-0.1519
1.0278,-0.068,-0.1685
1.0375,-0.0617,-0.188
1.0527,-0.0573,-0.1983
1.0659,-0.0538,-0.2085
1.0786,-0.0513,-0.208
1.0898,-0.0484,-0.2061
1.0962,-0.0518,-0.1939
1.1055,-0.0518,-0.1773
1.1142,-0.0553,-0.1509
1.1118,-0.0621,-0.1231
1.1133,-0.067,-0.0952
1.1123,-0.0719,-0.0624
1.1118,-0.0758,-0.0361
1.1084,-0.0817,-0.0014
1.1089,-0.0861,0.0333
1.1064,-0.0944,0.068
1.102,-0.1027,0.1022
1.1016,-0.1076,0.1403
1.1001,-0.1139,0.1799
1.0952,-0.1139,0.2092
1.0972,-0.1198,0.2425
1.0957,-0.1232,0.2737
1.0952,-0.1246,0.3059
1.0976,-0.1256,0.3373
1.1025,-0.1207,0.3656
1.1079,-0.1178,0.3851
1.1128,-0.1149,0.4095
1.1152,-0.1134,0.4262
1.1094,-0.1119,0.435
1.1069,-0.108,0.4438
1.103,-0.0993,0.4487
1.0918,-0.0919,0.454
1.084,-0.0822,0.4516
1.0762,-0.0729,0.4428
1.0727,-0.0709,0.435
1.0635,-0.0626,0.4237
1.0536,-0.0573,0.4149
1.0507,-0.0553,0.4037
1.0429,-0.0607,0.3861
1.039,-0.0626,0.3729
1.0302,-0.0646,0.3514
1.0224,-0.0695,0.3368
1.0185,-0.0768,0.3123
1.0112,-0.0787,0.2908
1.0038,-0.0851,0.2683
1.0014,-0.0895,0.2464
0.995,-0.0963,0.2307
0.9936,-0.1032,0.219
0.9906,-0.1085,0.2053
0.9858,-0.1198,0.2038
0.9706,-0.1276,0.2024
0.9584,-0.1286,0.2028
0.9427,-0.1325,0.2038
0.9217,-0.1325,0.2072
0.9076,-0.132,0.2107
0.8846,-0.131,0.2146
0.8641,-0.132,0.2151
0.845,-0.1295,0.219
0.8264,-0.1222,0.2273
0.8089,-0.1193,0.2351
0.7874,-0.1183,0.2449
0.7688,-0.11,0.2537
0.7551,-0.1041,0.2669
0.7404,-0.1007,0.2796
0.7331,-0.0958,0.2937
0.7224,-0.0919,0.2996
0.7199,-0.088,0.3059
0.7209,-0.0836,0.3089
0.7199,-0.0783,0.3113
0.8612,0.9117,2.7221
1.5389,0.1558,6.0325
1.2775,-1.3946,1.2984
0.7883,-0.7325,-0.2862
0.6222,-0.3352,-0.2114
0.7952,-0.0924,1.4962
0.6999,-0.6133,0.8278
0.6647,-0.4965,0.0192
0.6212,-0.3768,0.2766
0.5704,-0.4022,-0.0263
0.523,-0.391,-0.6146
0.4986,-0.4335,-1.7657
0.5436,-0.2273,-2.1254
0.6154,-0.1237,-2.1596
0.6921,-0.1066,-2.1435
0.7556,-0.0988,-2.0506
0.826,-0.0846,-1.8937
0.8484,-0.0836,-1.7076
0.8856,-0.0875,-1.4931
0.888,-0.0861,-1.283
0.9198,-0.0905,-1.0749
0.9589,-0.0895,-0.8672
0.9838,-0.0905,-0.6596
0.9819,-0.1007,-0.4866
0.9544,-0.0929,-0.3405
0.9461,-0.0773,-0.1983
0.9227,-0.0597,-0.0541
0.9173,-0.0435,0.0656
0.9022,-0.0167,0.196
0.8978,0.019,0.3231
0.9032,0.0537,0.453
0.9037,0.0752,0.5728
0.9203,0.0913,0.6788
0.9237,0.1035,0.7692
0.9471,0.1016,0.8513
0.956,0.0977,0.9143
0.9809,0.0825,0.9309
0.9926,0.0601,0.9138
1.0033,0.0278,0.8733
1.0199,-0.0157,0.8136
1.0297,-0.0543,0.7398
1.0361,-0.0949,0.6495
1.0356,-0.13,0.5454
1.0483,-0.1643,0.4408
1.0536,-0.1965,0.3353
1.0536,-0.2229,0.2571
1.0297,-0.237,0.1911
1.019,-0.2409,0.0128
1.0097,-0.2448,-0.1192
1.0009,-0.2536,-0.2354
1.0092,-0.2546,-0.3654
1.0092,-0.2487,-0.49
1.0199,-0.2497,-0.6102
1.0278,-0.238,-0.7221
1.0507,-0.218,-0.8173
1.0849,-0.2014,-0.8941
1.1191,-0.1901,-0.9556
1.1734,-0.1814,-1.0006
1.2144,-0.1784,-1.0245
1.2696,-0.1696,-1.0294
1.3248,-0.1599,-1.0191
1.3815,-0.1579,-0.9928
1.4275,-0.151,-0.963
1.4602,-0.1412,-0.9248
1.489,-0.1359,-0.8833
1.5013,-0.1286,-0.8427
1.5105,-0.1149,-0.8017
1.5013,-0.1046,-0.7568
1.4836,-0.0924,-0.7084
1.4611,-0.0802,-0.6639
1.4318,-0.07,-0.6175
1.3864,-0.069,-0.575
1.3327,-0.0617,-0.531
1.2828,-0.0543,-0.4822
1.2398,-0.0469,-0.4407
1.1983,-0.0313,-0.4001
1.1602,-0.0128,-0.3561
1.1284,0.0053,-0.3097
1.0972,0.0244,-0.273
1.0776,0.0419,-0.2349
1.0615,0.0424,-0.2017
1.0321,0.0737,-0.1792
1.0146,0.1065,-0.1465
1.0024,0.124,-0.1196
1.0014,0.1362,-0.1054
0.9985,0.1465,-0.0874
0.9941,0.1572,-0.0795
0.9921,0.1676,-0.0737
0.9975,0.1734,-0.0703
1.0058,0.17,-0.0717
1.0087,0.1685,-0.0795
1.018,0.1656,-0.0805
1.0243,0.1548,-0.0932
1.04,0.1421,-0.101
1.0566,0.1348,-0.1059
1.0688,0.1162,-0.127
1.0718,0.0947,-0.1402
1.0893,0.0757,-0.1499
1.1172,0.0497,-0.1592
1.1435,0.0224,-0.1709
1.1729,-0.003,-0.1758
1.2066,-0.0318,-0.1885
1.2291,-0.0592,-0.2075
1.2476,-0.0787,-0.2227
1.2647,-0.1051,-0.2364
1.2706,-0.13,-0.2491
1.2676,-0.1544,-0.2589
1.2701,-0.177,-0.2711
1.2691,-0.2077,-0.2706
1.2725,-0.2375,-0.2647
1.272,-0.259,-0.2623
1.2765,-0.2874,-0.2555
1.2672,-0.2967,-0.2393
1.2745,-0.325,-0.233
1.2814,-0.3636,-0.2242
1.2691,-0.3694,-0.2056
1.2628,-0.366,-0.1861
1.253,-0.367,-0.169
1.2388,-0.3714,-0.1538
1.2242,-0.3734,-0.1358
1.2042,-0.3699,-0.1133
1.1861,-0.3611,-0.1025
1.1636,-0.3553,-0.0849
1.1426,-0.3484,-0.0727
1.1284,-0.3387,-0.0639
1.1055,-0.3235,-0.0541
1.0849,-0.3157,-0.0449
1.0669,-0.3001,-0.0385
1.0444,-0.281,-0.0351
1.0234,-0.2703,-0.0292
1.0087,-0.258,-0.0278
0.9902,-0.2404,-0.0317
0.9667,-0.2219,-0.0366
0.951,-0.2019,-0.0424
0.933,-0.1853,-0.0561
0.9207,-0.1662,-0.0649
0.9115,-0.1569,-0.0742
0.8993,-0.1447,-0.0839
0.8895,-0.1359,-0.0952
0.8748,-0.1286,-0.1113
0.8612,-0.1159,-0.1206
0.8474,-0.1027,-0.1377
0.8386,-0.0905,-0.1475
0.8338,-0.0773,-0.1636
0.8289,-0.0729,-0.1782
0.8235,-0.0675,-0.187
0.8206,-0.0568,-0.1997
0.8098,-0.0504,-0.211
0.8069,-0.0425,-0.2218
0.8059,-0.0377,-0.231
0.8025,-0.0338,-0.232
0.8035,-0.0279,-0.2349
0.8035,-0.0211,-0.2354
0.803,-0.0132,-0.2374
0.8015,-0.0093,-0.2384
0.8045,-0.0128,-0.2349
0.8015,-0.0103,-0.2301
0.805,-0.0064,-0.2232
0.8079,-0.0035,-0.2193
0.8152,-0.0064,-0.2124
0.8255,-0.0074,-0.2061
0.8308,-0.0089,-0.1988
0.8411,-0.0123,-0.1934
0.8499,-0.0181,-0.1875
0.8651,-0.0235,-0.1851
0.8739,-0.0303,-0.1773
0.8866,-0.0357,-0.1743
0.9012,-0.0425,-0.1699
0.9134,-0.0508,-0.167
0.9198,-0.0587,-0.1577
0.9271,-0.0656,-0.1524
0.9354,-0.07,-0.146
0.9437,-0.07,-0.1358
0.9555,-0.0739,-0.1289
0.9638,-0.0773,-0.1206
0.9721,-0.0763,-0.1152
0.9789,-0.0763,-0.1109
0.9892,-0.0753,-0.103
0.9994,-0.0714,-0.0966
1.0058,-0.0719,-0.0952
1.0077,-0.07,-0.0952
1.0072,-0.0641,-0.0937
1.0097,-0.0592,-0.0917
1.016,-0.0518,-0.0937
1.0195,-0.0518,-0.0937
1.0214,-0.0367,-0.1005
1.018,-0.0274,-0.1005
1.0185,-0.0191,-0.0996
1.0199,-0.0098,-0.1025
1.0136,-0.0015,-0.1
1.0116,0.0092,-0.1
1.0048,0.0195,-0.0996
0.996,0.0273,-0.0991
0.9921,0.038,-0.0917
0.9902,0.0483,-0.0849
0.9882,0.0542,-0.0849
0.9828,0.0679,-0.0742
0.9809,0.0747,-0.0639
0.975,0.0801,-0.061
0.9672,0.0908,-0.0566
0.9672,0.0982,-0.0512
0.9648,0.105,-0.0424
0.9594,0.1109,-0.0346
0.9589,0.1133,-0.0327
0.9599,0.1182,-0.0273
0.9589,0.1226,-0.019
0.9574,0.1206,-0.0126
0.9569,0.1196,-0.0073
0.9535,0.1226,-0.0043
0.956,0.1221,-0.0019
0.955,0.1148,0.0011
0.9496,0.1109,0.0045
0.9437,0.1006,0.006
0.9413,0.0942,0.006
0.9369,0.0879,0.0074
0.93,0.0796,0.0104
0.9232,0.0713,0.0133
0.9188,0.0669,0.0114
0.9139,0.0581,0.0089
0.9076,0.0562,0.0123
0.9051,0.0512,0.0089
0.9022,0.0414,0.0065
0.9032,0.0351,-0.0009
0.8924,0.0302,-0.0082
0.8851,0.0219,-0.0175
0.8773,0.0141,-0.0209
0.8631,0.0068,-0.0312
0.8543,0.0019,-0.0356
0.843,-0.0059,-0.0419
0.8299,-0.0054,-0.0522
0.8128,-0.0108,-0.0522
0.7967,-0.0186,-0.0615
0.7805,-0.025,-0.0634
0.7639,-0.0308,-0.0668
0.7434,-0.0318,-0.0693
0.7268,-0.0367,-0.0712
0.7067,-0.0425,-0.0727
0.6892,-0.044,-0.0717
0.6701,-0.0425,-0.0644
0.655,-0.044,-0.0585
0.6324,-0.0479,-0.0512
0.61,-0.0504,-0.038
0.587,-0.0508,-0.02
0.5675,-0.0504,-0.0073
0.5436,-0.0553,0.0089
0.5171,-0.0573,0.028
0.4927,-0.0582,0.0446
0.4698,-0.0592,0.067
0.439,-0.0626,0.0846
0.4072,-0.0577,0.1052
0.3823,-0.0587,0.1325
0.3574,-0.0582,0.1628
0.3408,-0.0587,0.1921
0.3247,-0.0573,0.2215
0.3163,-0.0636,0.2503
0.3041,-0.0597,0.2742
0.3017,-0.0597,0.2967
0.2978,-0.0602,0.3157
0.2973,-0.0641,0.3319
0.3036,-0.0621,0.3431
0.3051,-0.0626,0.3456
0.309,-0.0626,0.3495
0.3158,-0.0651,0.346
0.3203,-0.068,0.3358
0.3217,-0.0704,0.3236
0.3261,-0.0709,0.305
0.3286,-0.0714,0.2766
0.3257,-0.0773,0.2508
0.3222,-0.0768,0.2205
0.3173,-0.0783,0.1911
0.308,-0.0807,0.1594
0.3007,-0.0797,0.1252
0.2934,-0.0797,0.0895
0.2768,-0.0758,0.048
0.2641,-0.0714,0.0197
0.2553,-0.0665,-0.0121
0.2401,-0.0563,-0.0414
0.2313,-0.0494,-0.0644
0.225,-0.0401,-0.0805
0.2098,-0.0264,-0.0991
0.2069,-0.004,-0.1152
0.2025,0.0097,-0.1143
0.202,0.0331,-0.1113
0.2064,0.0532,-0.103
0.2191,0.0806,-0.0849
0.2455,0.104,-0.0688
0.2787,0.1235,-0.0454
0.31,0.1416,-0.0146
0.3481,0.1602,0.0123
0.3979,0.1768,0.0446
0.4502,0.1856,0.0748
0.4952,0.191,0.1052
0.5397,0.1905,0.1257
0.5831,0.19,0.1481
0.6115,0.1783,0.1628
0.6398,0.171,0.1823
0.6628,0.1617,0.197
0.6823,0.1499,0.2072
0.7028,0.1362,0.2185
0.7229,0.124,0.2327
0.7351,0.1162,0.2425
0.7586,0.0996,0.2498
0.7761,0.0864,0.2522
0.7898,0.0752,0.2552
0.8001,0.062,0.2586
0.8186,0.0532,0.2537
0.826,0.0385,0.2493
0.8289,0.0385,0.2395
0.8367,0.0336,0.2171
0.8352,0.0292,0.1926
0.8367,0.0351,0.1628
0.825,0.0547,0.1315
0.8133,0.0855,0.0934
0.8045,0.1162,0.0514
0.8118,0.1323,0.0226
0.8289,0.127,0.0021
0.8529,0.0977,-0.0229
0.8841,0.0522,-0.0527
0.912,0.0034,-0.0864
0.9422,-0.0469,-0.1299
0.9902,-0.0846,-0.1758
1.0492,-0.1124,-0.214
1.1167,-0.1271,-0.2437
1.1964,-0.1334,-0.2633
1.2819,-0.1305,-0.274
1.3712,-0.1144,-0.2706
1.5115,-0.1364,-0.2545
1.6776,-0.1721,-0.2349
1.6424,-0.1687,-0.2848
1.4915,-0.1926,-0.4509
1.6,-0.2185,-0.4783
1.6703,-0.2087,-0.5124
1.7309,-0.1892,-0.5628
1.8149,-0.1872,-0.5999
1.8984,-0.1794,-0.6493
1.9854,-0.1735,-0.6718
2.0602,-0.1667,-0.6918
2.1198,-0.1559,-0.723
2.2053,-0.1544,-0.7055
2.3045,-0.1452,-0.663
2.3612,-0.132,-0.6771
2.4305,-0.1198,-0.6942
2.5,-0.1027,-0.7015
2.583,-0.091,-0.7084
2.6583,-0.0709,-0.7094
2.7521,-0.0416,-0.6727
2.8385,-0.0001,-0.6361
2.9094,0.0606,-0.5901
2.9778,0.1206,-0.5369
3.0252,0.1969,-0.4392
3.035,0.2834,-0.3898
3.0062,0.3669,-0.3849
2.9509,0.4582,-0.3854
2.887,0.5399,-0.3844
2.8151,0.6156,-0.3786
2.7418,0.6727,-0.3786
2.6651,0.7148,-0.3996
2.5928,0.7417,-0.4289
2.5302,0.7573,-0.4485
2.4623,0.7734,-0.4763
2.389,0.8013,-0.5061
2.3084,0.8272,-0.5276
2.2263,0.8535,-0.5295
2.1345,0.8809,-0.53
2.0255,0.9137,-0.5193
1.9141,0.9474,-0.4983
1.8115,0.9772,-0.4543
1.6977,1.0085,-0.4015
1.5789,1.0368,-0.3454
1.4851,1.0563,-0.2789
1.3986,1.0651,-0.2188
1.3351,1.069,-0.1572
1.2985,1.0602,-0.0957
1.2897,1.0295,-0.0449
1.2637,1.0011,0.0138
1.2437,0.963,0.0704
1.2222,0.9137,0.111
1.2051,0.8687,0.174
1.1998,0.8198,0.2522
1.2003,0.767,0.329
1.2007,0.7202,0.3709
1.2105,0.6698,0.3885
1.211,0.6224,0.391
1.2178,0.5731,0.3827
1.2281,0.5184,0.3656
1.233,0.4631,0.3343
1.2427,0.4084,0.3045
1.255,0.3527,0.2659
1.2589,0.3029,0.2268
1.2515,0.253,0.2009
1.2447,0.2027,0.1682
1.2261,0.1514,0.1433
1.2017,0.1065,0.1237
1.1695,0.0581,0.1052
1.1435,0.0112,0.09
1.1138,-0.0303,0.068
1.0796,-0.0612,0.0529
1.0502,-0.0861,0.0372
1.0126,-0.1105,0.025
0.9735,-0.1281,0.0206
0.9334,-0.1398,0.0167
0.89,-0.1452,0.0133
0.8469,-0.1486,0.0157
0.8015,-0.15,0.0192
0.7576,-0.1515,0.0265
0.715,-0.1505,0.0358
0.6691,-0.1544,0.0446
0.6295,-0.1628,0.0592
0.5939,-0.1677,0.0802
0.5646,-0.1862,0.1046
0.5372,-0.1926,0.1291
0.5152,-0.2092,0.1477
0.4961,-0.2229,0.1662
0.4791,-0.238,0.1941
0.462,-0.2487,0.2132
0.4527,-0.259,0.2254
0.4375,-0.2727,0.2434
0.4283,-0.2801,0.2566
0.4199,-0.2913,0.2713
0.4096,-0.2981,0.2879
0.4004,-0.3035,0.2942
0.3945,-0.3055,0.3015
0.3891,-0.3113,0.305
0.3818,-0.3118,0.3108
0.373,-0.3142,0.3162
0.3725,-0.2976,0.3202
0.3818,-0.2654,0.3275
0.4136,-0.2375,0.3348
0.46,-0.2116,0.3407
0.5123,-0.1774,0.3338
0.5631,-0.1583,0.3231
0.5968,-0.1373,0.3089
0.6124,-0.1173,0.2747
0.6344,-0.0968,0.2395
0.6481,-0.0797,0.2136
0.6579,-0.0651,0.1853
0.6696,-0.0469,0.154
0.6755,-0.0328,0.1218
0.6838,-0.0108,0.09
0.6901,0.0048,0.0587
0.6901,0.019,0.0299
0.6945,0.039,0.004
0.697,0.0502,-0.0156
0.6892,0.0591,-0.0463
0.6916,0.0713,-0.0639
0.6823,0.0859,-0.0834
0.6774,0.0986,-0.103
0.6696,0.1109,-0.1167
0.6628,0.1206,-0.1284
0.656,0.1338,-0.1358
0.6442,0.1348,-0.1441
0.6227,0.1465,-0.1577
0.6124,0.1637,-0.1514
0.6051,0.1759,-0.1441
0.5968,0.1851,-0.1343
0.5919,0.1925,-0.1187
0.589,0.1983,-0.1064
0.5865,0.2091,-0.0859
0.5846,0.2125,-0.0654
0.5856,0.2183,-0.0483
0.5836,0.2257,-0.0292
0.5792,0.2335,-0.0126
0.5836,0.2374,0.006
0.5817,0.2413,0.0255
0.5841,0.2457,0.0455
0.5861,0.2481,0.067
0.5851,0.2511,0.0914
0.5856,0.2574,0.1115
0.5909,0.2584,0.1281
0.5895,0.2569,0.1442
0.5958,0.2594,0.1657
0.5939,0.2594,0.1843
0.5963,0.252,0.1994
0.5905,0.2413,0.218
0.5748,0.2266,0.2293
0.569,0.2183,0.2337
0.5592,0.2066,0.2425
0.5558,0.193,0.2488
0.5553,0.1793,0.2542
0.5641,0.1671,0.2581
0.5714,0.147,0.2625
0.5841,0.1294,0.2698
0.5992,0.1143,0.2698
0.6095,0.0996,0.2703
0.6207,0.085,0.2742
0.6418,0.0693,0.2742
0.655,0.0532,0.2762
0.6716,0.041,0.2742
0.6823,0.0258,0.2713
0.7009,0.0146,0.2708
0.717,0.0004,0.2678
0.7292,-0.0079,0.263
0.739,-0.0128,0.262
0.7566,-0.0191,0.2595
0.7669,-0.024,0.2595
0.7781,-0.022,0.2586
0.7883,-0.0172,0.2547
0.7971,-0.0137,0.2527
0.805,-0.0054,0.2522
0.8133,0.0073,0.2517
0.8167,0.0117,0.2498
0.8181,0.0224,0.2512
0.8172,0.0346,0.2556
0.8181,0.0473,0.2586
0.8147,0.061,0.2654
0.8137,0.0762,0.2678
0.8098,0.0899,0.2791
0.8059,0.1065,0.2962
0.8006,0.124,0.305
0.7947,0.1372,0.3172
0.7971,0.1543,0.3304
0.7942,0.1734,0.3426
0.7962,0.19,0.3495
0.7903,0.2135,0.3578
0.7913,0.2349,0.3675
0.7923,0.2525,0.3729
0.7986,0.2682,0.3753
0.8006,0.2956,0.3797
0.8069,0.32,0.3778
0.8128,0.342,0.3729
0.8206,0.363,0.3656
0.8308,0.3791,0.35
0.8435,0.3977,0.3285
0.8499,0.4109,0.3006
0.8578,0.4216,0.2683
0.8685,0.4328,0.2332
0.8783,0.4436,0.1867
0.8866,0.4514,0.1389
0.8993,0.4597,0.091
0.909,0.4626,0.0387
0.9305,0.4656,-0.0117
0.9481,0.4626,-0.0624
0.9779,0.4524,-0.1162
1.0077,0.449,-0.1743
1.0297,0.4377,-0.234
1.0551,0.4231,-0.2852
1.0864,0.4016,-0.3483
1.1157,0.386,-0.403
1.146,0.3634,-0.4509
1.1739,0.3434,-0.5007
1.2022,0.318,-0.5438
1.2291,0.2882,-0.5799
1.2515,0.2692,-0.6097
1.2819,0.2393,-0.6346
1.318,0.2037,-0.6493
1.3507,0.1763,-0.6537
1.3923,0.1563,-0.6542
1.4436,0.1406,-0.6464
1.4861,0.1309,-0.6263
1.5491,0.1172,-0.6116
1.6151,0.104,-0.5843
1.6869,0.083,-0.5511
1.7514,0.0664,-0.5163
1.7314,0.0606,-0.5115
1.6659,0.0336,-0.5433
1.7451,0.0019,-0.4934
1.7919,-0.0123,-0.4397
1.8267,-0.0181,-0.4098
1.8701,-0.0225,-0.3756
1.9166,-0.0264,-0.3468
1.9405,-0.0313,-0.3322
1.962,-0.0328,-0.3258
1.9928,-0.0294,-0.3239
2.0089,-0.0274,-0.3214
2.0167,-0.0176,-0.3195
2.0192,-0.0084,-0.3224
2.0089,0.0009,-0.3239
2.0069,0.0082,-0.32
1.9996,0.0107,-0.2999
1.9898,0.0102,-0.276
1.981,-0.0001,-0.2467
1.9688,-0.0137,-0.2114
1.9415,-0.0401,-0.1797
1.8662,-0.0743,-0.1626
1.7631,-0.0949,-0.1553
1.6752,-0.1203,-0.1235
1.599,-0.1383,-0.0815
1.5232,-0.1544,-0.0327
1.4538,-0.1706,0.0255
1.3947,-0.1857,0.0919
1.3502,-0.198,0.1643
1.3375,-0.1989,0.2503
1.3644,-0.1911,0.346
1.4094,-0.1911,0.4316
1.4265,-0.198,0.4916
1.4411,-0.2024,0.5268
1.4558,-0.2009,0.5522
1.466,-0.2038,0.5791
1.4748,-0.2092,0.5933
1.4782,-0.2116,0.6045
1.4778,-0.2141,0.6104
1.4699,-0.2131,0.6064
1.4616,-0.2053,0.6035
1.4553,-0.1984,0.5908
1.448,-0.195,0.5718
1.4367,-0.1828,0.5474
1.4235,-0.1638,0.5146
1.4172,-0.1456,0.4706
1.4089,-0.1315,0.4232
1.4025,-0.1124,0.3749
1.3977,-0.088,0.3304
1.3977,-0.0597,0.2766
1.4118,-0.044,0.219
1.4275,-0.0352,0.1604
1.4245,-0.023,0.0949
1.4148,-0.0089,0.0353
1.4084,0.0058,-0.0063
1.3952,0.0248,-0.0488
1.3688,0.0458,-0.0903
1.3473,0.0684,-0.127
1.3297,0.0899,-0.166
1.3161,0.104,-0.1963
1.3068,0.1182,-0.2218
1.2911,0.1245,-0.2486
1.2667,0.1411,-0.2569
1.2506,0.1572,-0.2642
1.2335,0.168,-0.2652
1.2115,0.1768,-0.2594
1.189,0.1876,-0.253
1.1631,0.1934,-0.2413
1.1299,0.2037,-0.2203
1.104,0.2081,-0.1958
1.0791,0.21,-0.1636
1.0556,0.2125,-0.1323
1.0287,0.2125,-0.1005
1.0004,0.212,-0.0742
0.9687,0.2169,-0.0458
0.9427,0.2193,-0.0204
0.9154,0.2208,0.0079
0.8861,0.2223,0.0343
0.8621,0.2218,0.0612
0.8323,0.2159,0.0783
0.8118,0.213,0.1002
0.7947,0.2042,0.1232
0.7869,0.2047,0.1486
0.8201,0.2198,0.1843
0.7986,0.2198,0.2019
0.78,0.2198,0.2019
0.761,0.2149,0.2009
0.7488,0.1978,0.195
0.7385,0.19,0.1887
0.7248,0.1803,0.1789
0.7077,0.1759,0.1735
0.6945,0.1705,0.1594
0.6774,0.1622,0.1486
0.6667,0.1538,0.1403
0.652,0.1445,0.1242
0.6398,0.1362,0.1057
0.6271,0.1338,0.0924
0.6071,0.1255,0.0704
0.5953,0.1196,0.049
0.5802,0.1157,0.0299
0.5626,0.1128,0.0153
0.5436,0.1069,-0.0112
0.5245,0.1006,-0.0244
0.4996,0.0962,-0.0444
0.4781,0.0913,-0.0644
0.46,0.0889,-0.0805
0.4415,0.0816,-0.0976
0.4204,0.0757,-0.1094
0.395,0.0732,-0.1226
0.3701,0.0718,-0.1382
0.3481,0.0689,-0.1436
0.3325,0.0649,-0.1543
0.31,0.062,-0.1602
0.2865,0.0586,-0.1631
0.2655,0.0566,-0.1611
0.245,0.0566,-0.1607
0.2265,0.0542,-0.1504
0.2093,0.0552,-0.1406
0.1951,0.0488,-0.1299
0.1825,0.0458,-0.1167
0.1683,0.0424,-0.1049
0.1575,0.0395,-0.0854
0.1488,0.0356,-0.0693
0.1409,0.0327,-0.0532
0.1434,0.0336,-0.0336
0.1522,0.0312,-0.0126
0.1634,0.0263,0.0055
0.1756,0.0248,0.0231
0.1844,0.0248,0.0411
0.1951,0.0229,0.0558
0.2059,0.0234,0.0685
0.2108,0.0209,0.0739
0.2133,0.0204,0.0831
0.2182,0.0204,0.0866
0.2182,0.0151,0.0875
0.2128,0.0097,0.0905
0.2083,0.0156,0.09
0.2044,0.0126,0.09
0.1951,0.0092,0.0905
0.1912,0.0034,0.087
0.1888,-0.001,0.0856
0.1888,-0.0108,0.0885
0.1922,-0.0152,0.088
0.1922,-0.0264,0.0861
0.1776,-0.0328,0.0729
0.1776,-0.0318,0.0729
0.1912,-0.0406,0.0787
0.2133,-0.0553,0.0841
0.2401,-0.0631,0.0905
0.2611,-0.0685,0.091
0.287,-0.0753,0.09
0.3129,-0.0792,0.0914
0.3379,-0.0856,0.0905
0.3623,-0.0924,0.0914
0.3828,-0.0963,0.091
0.3999,-0.0983,0.0924
0.4175,-0.1017,0.0949
0.438,-0.1036,0.0988
0.4571,-0.1022,0.1012
0.4727,-0.1007,0.1027
0.4869,-0.1017,0.1071
0.501,-0.1032,0.1046
0.5142,-0.1002,0.114
0.5294,-0.0953,0.1223
0.5455,-0.0924,0.1223
0.5626,-0.0822,0.135
0.5787,-0.0729,0.1403
0.5919,-0.0651,0.1491
0.6115,-0.0504,0.156
0.6334,-0.0357,0.1731
0.6481,-0.0235,0.1867
0.6623,-0.0157,0.1999
0.6711,-0.0025,0.2146
0.6838,0.0053,0.2361
0.7004,0.0156,0.2527
0.7165,0.0214,0.2752
0.7321,0.0288,0.2947
0.7503,0.0405,0.3172
0.7713,0.0542,0.3353
0.7844,0.0713,0.3519
0.8084,0.084,0.3587
0.843,0.0938,0.3622
0.8846,0.0947,0.3646
0.9281,0.0869,0.3563
0.9814,0.0649,0.349
1.0351,0.0346,0.3412
1.0869,0.0078,0.3167
1.1284,-0.0108,0.2849
1.1626,-0.0049,0.242
1.2188,-0.0045,0.1828
1.2843,-0.0049,0.114
1.361,0.0092,0.0353
1.447,0.0234,-0.0414
1.5535,0.0336,-0.1187
1.6634,0.04,-0.1934
1.7026,0.0292,-0.2872
1.6522,-0.0054,-0.426
1.7294,-0.0406,-0.4919
1.8047,-0.0494,-0.5232
1.8428,-0.0425,-0.5804
1.8784,-0.0201,-0.6498
1.9244,0.0034,-0.7196
2.0079,0.0092,-0.7529
2.0832,0.0273,-0.7729
2.1012,0.0542,-0.8173
2.112,0.0908,-0.8638
2.1477,0.1167,-0.8853
2.219,0.1377,-0.8471
2.283,0.1602,-0.8003
2.3456,0.1895,-0.7485
2.4066,0.2169,-0.6869
2.4702,0.2491,-0.6253
2.5278,0.2785,-0.5565
2.5908,0.32,-0.4787
2.6353,0.3673,-0.3932
2.6632,0.4411,-0.2862
2.6656,0.5384,-0.169
2.6172,0.6473,-0.1187
2.5146,0.7675,-0.0805
2.3895,0.8653,-0.0517
2.2464,0.9283,-0.0258
2.1071,0.9703,-0.0019
1.9903,0.9752,0.0011
1.9327,0.9259,-0.0038
1.8984,0.8662,0.006
1.8213,0.8423,-0.0068
1.7436,0.8252,-0.0273
1.6844,0.7984,-0.0517
1.6708,0.7417,-0.0581
1.6473,0.707,-0.0537
1.6239,0.6859,-0.0444
1.599,0.6649,-0.0375
1.5706,0.6449,-0.0258
1.5486,0.6239,-0.0126
1.5296,0.5985,0.0079
1.5086,0.5735,0.0226
1.4915,0.5525,0.0416
1.4719,0.5223,0.07
1.4548,0.4998,0.1041
1.4377,0.4753,0.1491
1.4284,0.4504,0.1867
1.4118,0.4241,0.219
1.3991,0.3972,0.2439
1.3923,0.3708,0.2722
1.3859,0.3483,0.3001
1.3913,0.3327,0.326
1.3933,0.3146,0.3431
1.3996,0.2941,0.3475
1.4094,0.278,0.3451
1.4133,0.2579,0.3392
1.4235,0.2408,0.3265
1.4323,0.2252,0.3094
1.4426,0.2149,0.2805
