accx,accy,accz
0.8233,-0.1102,0.2101
0.817,-0.1053,0.2103
0.8094,-0.0992,0.2089
0.8025,-0.0923,0.2077
0.7962,-0.0855,0.206
0.7881,-0.0782,0.2025
0.7788,-0.0708,0.1984
0.771,-0.0635,0.194
0.7649,-0.0562,0.1891
0.76,-0.0493,0.1847
0.7552,-0.0437,0.1793
0.7498,-0.0371,0.1742
0.7434,-0.0303,0.1705
0.7378,-0.0242,0.1681
0.7334,-0.0195,0.1664
0.729,-0.0151,0.1654
0.7241,-0.011,0.1642
0.7185,-0.0076,0.1632
0.7136,-0.0054,0.1625
0.7092,-0.0054,0.1622
0.7056,-0.0061,0.162
0.7009,-0.0061,0.1639
0.6973,-0.0066,0.1664
0.6941,-0.0078,0.1686
0.6921,-0.01,0.1713
0.6897,-0.0127,0.1747
0.6885,-0.0149,0.1796
0.6882,-0.0169,0.184
0.6892,-0.0191,0.1896
0.6914,-0.0208,0.1964
0.6938,-0.0222,0.2035
0.6973,-0.0239,0.2113
0.7014,-0.0252,0.2182
0.7065,-0.0254,0.2243
0.7114,-0.0252,0.2292
0.7161,-0.0249,0.2318
0.7202,-0.0244,0.234
0.7244,-0.0244,0.2348
0.7302,-0.0244,0.234
0.7356,-0.0247,0.2323
0.74,-0.0247,0.2304
0.7434,-0.0244,0.2257
0.7468,-0.0249,0.2187
0.7493,-0.0252,0.2099
0.7512,-0.0244,0.2001
0.7532,-0.0235,0.1888
0.7549,-0.022,0.1761
0.7554,-0.0213,0.1644
0.7542,-0.021,0.1532
0.7525,-0.0203,0.1422
0.75,-0.0198,0.1314
0.7471,-0.0181,0.1224
0.7434,-0.0161,0.1136
0.74,-0.0142,0.1063
0.7368,-0.0127,0.1014
0.7324,-0.0105,0.0982
0.7266,-0.0073,0.0982
0.7217,-0.0039,0.0999
0.7175,0.001,0.1036
0.7141,0.0054,0.1085
0.7097,0.0086,0.1143
0.7065,0.011,0.1214
0.7046,0.0122,0.1302
0.7036,0.0129,0.1412
0.7029,0.0139,0.1539
0.7026,0.0144,0.1676
0.7029,0.0147,0.1827
0.7038,0.0154,0.1996
0.7051,0.0166,0.2169
0.707,0.0181,0.2345
0.7102,0.0198,0.2531
0.7139,0.021,0.2724
0.7178,0.022,0.2915
0.7217,0.0225,0.3095
0.7261,0.0215,0.3259
0.7319,0.0203,0.3425
0.7385,0.0186,0.3567
0.7461,0.0169,0.3677
0.7532,0.0144,0.3765
0.7617,0.011,0.3845
0.771,0.0066,0.3911
0.7823,0.0017,0.3946
0.7942,-0.0034,0.395
0.8062,-0.0093,0.3928
0.8182,-0.0159,0.3892
0.8324,-0.0227,0.3828
0.8475,-0.0296,0.3745
0.8624,-0.0369,0.3643
0.8758,-0.0454,0.352
0.8881,-0.0545,0.3384
0.9005,-0.063,0.322
0.9125,-0.0713,0.3049
0.9254,-0.0801,0.2868
0.9379,-0.0884,0.2673
0.9508,-0.0965,0.2465
0.965,-0.1048,0.2248
0.9797,-0.1112,0.2018
0.9958,-0.1173,0.1783
1.0136,-0.1248,0.1549
1.0337,-0.1317,0.1319
1.0556,-0.1383,0.1087
1.0793,-0.1444,0.0865
1.1043,-0.1505,0.0652
1.1319,-0.1556,0.0437
1.1607,-0.161,0.023
1.1876,-0.1654,0.0015
1.2162,-0.1703,-0.0181
1.2477,-0.1754,-0.0362
1.2799,-0.1801,-0.0557
1.3112,-0.183,-0.0792
1.3539,-0.1881,-0.1224
1.3801,-0.1903,-0.1522
1.4048,-0.1913,-0.1796
1.4275,-0.193,-0.2062
1.4434,-0.1994,-0.2355
1.4585,-0.1991,-0.2631
1.4768,-0.1901,-0.2866
1.4964,-0.1781,-0.3078
1.5162,-0.1683,-0.3279
1.5355,-0.1595,-0.3462
1.5531,-0.1502,-0.3628
1.5699,-0.14,-0.3784
1.5858,-0.1292,-0.3928
1.5992,-0.1173,-0.4041
1.6102,-0.1055,-0.4121
1.6185,-0.0926,-0.4161
1.6239,-0.0796,-0.4168
1.6224,-0.0694,-0.4156
1.6114,-0.0621,-0.4097
1.589,-0.0555,-0.399
1.5579,-0.0496,-0.3828
1.5186,-0.0445,-0.3608
1.4746,-0.0413,-0.333
1.428,-0.0396,-0.2983
1.3801,-0.0396,-0.2577
1.3329,-0.0403,-0.2138
1.289,-0.042,-0.1688
1.2482,-0.0469,-0.1244
1.211,-0.0537,-0.0804
1.1785,-0.0616,-0.0371
1.1492,-0.0716,0.0044
1.1236,-0.0838,0.043
1.1026,-0.0977,0.0801
1.0852,-0.1131,0.1136
1.0725,-0.1295,0.1454
1.0647,-0.1456,0.1754
1.0608,-0.1625,0.2028
1.061,-0.1793,0.2289
1.0664,-0.1962,0.2541
1.0774,-0.2128,0.2783
1.0928,-0.2296,0.3007
1.1126,-0.2472,0.3215
1.1365,-0.266,0.3415
1.1641,-0.2861,0.3611
1.1947,-0.3073,0.3794
1.2281,-0.3291,0.3968
1.2631,-0.3503,0.4126
1.2995,-0.3723,0.427
1.3366,-0.3933,0.4393
1.3754,-0.4134,0.4481
1.415,-0.4332,0.4537
1.4544,-0.4529,0.4576
1.4934,-0.4718,0.4593
1.5316,-0.4893,0.4588
1.5662,-0.5052,0.4549
1.5965,-0.5177,0.4471
1.6222,-0.5262,0.4366
1.6412,-0.5319,0.4251
1.6522,-0.5321,0.4139
1.6535,-0.5231,0.4004
1.643,-0.5035,0.385
1.6217,-0.4747,0.3674
1.5904,-0.4398,0.3469
1.5516,-0.4036,0.3235
1.5079,-0.3679,0.2985
1.4622,-0.3337,0.2734
1.4155,-0.3015,0.2504
1.3698,-0.2731,0.2299
1.3268,-0.2482,0.2133
1.2868,-0.226,0.2008
1.2494,-0.206,0.1918
1.2142,-0.1886,0.1854
1.1807,-0.173,0.1818
1.149,-0.1578,0.1813
1.1197,-0.1437,0.1835
1.0918,-0.1312,0.1879
1.0652,-0.1197,0.1932
1.0385,-0.1092,0.1991
1.0122,-0.0987,0.2055
0.988,-0.0894,0.2118
0.964,-0.0814,0.2189
0.9386,-0.0738,0.225
0.9135,-0.0669,0.2316
0.8888,-0.0613,0.2377
0.8666,-0.0567,0.2436
0.8463,-0.0537,0.2494
0.8275,-0.0523,0.2553
0.8111,-0.052,0.2607
0.7984,-0.052,0.2653
0.7889,-0.0535,0.2702
0.783,-0.0557,0.2748
0.7801,-0.0581,0.2785
0.7796,-0.0625,0.2827
0.7835,-0.0669,0.288
0.7913,-0.0716,0.2944
0.8021,-0.077,0.3007
0.8165,-0.0833,0.3073
0.8333,-0.0899,0.312
0.8514,-0.0972,0.3149
0.8705,-0.1048,0.3159
0.8883,-0.1116,0.3154
0.9044,-0.117,0.3127
0.9183,-0.1222,0.3061
0.9311,-0.127,0.2981
0.9428,-0.1312,0.2895
0.9528,-0.1351,0.2812
0.9611,-0.138,0.2729
0.9672,-0.14,0.2648
0.9701,-0.141,0.2563
0.9719,-0.1415,0.2467
0.9721,-0.1415,0.2377
0.9706,-0.1405,0.2289
0.9689,-0.139,0.2199
0.9672,-0.1373,0.2118
0.965,-0.1351,0.204
0.9626,-0.1336,0.1959
0.9604,-0.1314,0.1896
0.9574,-0.127,0.1845
0.9545,-0.1217,0.1791
0.9521,-0.1165,0.1732
0.9499,-0.1121,0.1678
0.9472,-0.108,0.1634
0.945,-0.1038,0.1576
0.942,-0.0999,0.1524
0.9391,-0.0965,0.148
0.9367,-0.0921,0.1424
0.934,-0.0872,0.1373
0.9311,-0.0826,0.1324
0.9291,-0.0782,0.1278
0.9269,-0.0743,0.1229
0.9225,-0.0704,0.1173
0.9174,-0.0672,0.1114
0.9113,-0.0633,0.1058
0.9056,-0.0589,0.1014
0.9003,-0.0552,0.0975
0.8949,-0.052,0.0945
0.8893,-0.0484,0.0926
0.8824,-0.045,0.0906
0.8768,-0.043,0.0882
0.871,-0.0418,0.0877
0.8639,-0.0408,0.086
0.8565,-0.0393,0.0843
0.848,-0.0386,0.0826
0.8399,-0.0388,0.0806
0.8311,-0.0381,0.0799
0.8223,-0.0362,0.0801
0.8135,-0.0342,0.0814
0.8045,-0.0342,0.0831
0.7952,-0.0344,0.0858
0.785,-0.0335,0.0899
0.7757,-0.034,0.095
0.7683,-0.0364,0.1007
0.761,-0.0381,0.1058
0.7527,-0.0384,0.1121
0.7429,-0.0381,0.1192
0.7322,-0.0374,0.1266
0.7214,-0.0371,0.1336
0.7107,-0.0388,0.1412
0.7007,-0.042,0.1485
0.6907,-0.0454,0.1564
0.6799,-0.0484,0.1649
0.6692,-0.053,0.1727
0.6586,-0.0589,0.1813
0.6474,-0.0647,0.1906
0.6354,-0.0711,0.1994
0.6225,-0.0777,0.2072
0.6105,-0.085,0.2138
0.5929,-0.0967,0.2257
0.5819,-0.1043,0.234
0.5702,-0.1116,0.2436
0.5578,-0.1192,0.2529
0.545,-0.1278,0.2612
0.5345,-0.1368,0.2682
0.5248,-0.1478,0.2748
0.5155,-0.1588,0.2805
0.5077,-0.1703,0.2853
0.5013,-0.1815,0.2917
0.4969,-0.1932,0.2976
0.4947,-0.2042,0.3029
0.494,-0.2147,0.3076
0.495,-0.2243,0.3125
0.5003,-0.2316,0.3178
0.5106,-0.237,0.3215
0.5157,-0.247,0.3242
0.5167,-0.2582,0.3279
0.5174,-0.2656,0.331
0.5196,-0.2712,0.3345
0.5253,-0.2748,0.3376
0.5333,-0.2783,0.3408
0.5438,-0.2817,0.3442
0.5534,-0.2844,0.3476
0.5631,-0.2853,0.3506
0.5736,-0.2861,0.353
0.5836,-0.2863,0.3562
0.5937,-0.2844,0.3586
0.6032,-0.2807,0.3606
0.6115,-0.2761,0.3626
0.6191,-0.2707,0.3643
0.6257,-0.2641,0.3652
0.6318,-0.2573,0.3665
0.6359,-0.2492,0.3689
0.6381,-0.2397,0.3709
0.6396,-0.2289,0.3718
0.6408,-0.2169,0.3733
0.6415,-0.2045,0.3753
0.6415,-0.193,0.3782
0.6403,-0.1803,0.3809
0.6396,-0.1678,0.3831
0.6396,-0.1564,0.3855
0.6398,-0.1446,0.387
0.6411,-0.1331,0.3872
0.6403,-0.1231,0.3862
0.6389,-0.1134,0.3848
0.6381,-0.1041,0.3823
0.6367,-0.0967,0.3787
0.6362,-0.0904,0.3753
0.6359,-0.0867,0.3723
0.6345,-0.0828,0.3684
0.6328,-0.0792,0.3635
0.6303,-0.0782,0.3591
0.6281,-0.0779,0.3552
0.6266,-0.0782,0.352
0.6262,-0.0799,0.3496
0.6259,-0.0823,0.3474
0.6269,-0.0855,0.3459
0.6296,-0.0906,0.345
0.6328,-0.0958,0.3452
0.6374,-0.1002,0.3464
0.6433,-0.1043,0.3481
0.6494,-0.1097,0.3511
0.6574,-0.116,0.3542
0.6657,-0.1217,0.3579
0.6753,-0.1258,0.3611
0.6848,-0.127,0.365
0.6933,-0.1268,0.3684
0.7026,-0.1275,0.3706
0.7129,-0.1292,0.3696
0.7251,-0.1314,0.3655
0.7393,-0.1344,0.3596
0.7549,-0.1361,0.353
0.7713,-0.1368,0.3457
0.7884,-0.1358,0.3393
0.8062,-0.1331,0.3325
0.825,-0.1297,0.3242
0.8448,-0.1251,0.3156
0.8656,-0.1182,0.3054
0.8868,-0.1094,0.2934
0.9086,-0.0987,0.2792
0.932,-0.0875,0.2624
0.9562,-0.0755,0.2426
0.9824,-0.0623,0.2204
1.0107,-0.0481,0.1967
1.0405,-0.0342,0.1722
1.0713,-0.0213,0.1466
1.1035,-0.0095,0.1192
1.1372,-0.0002,0.0901
1.1734,0.0081,0.0599
1.2115,0.0151,0.0274
1.2499,0.0205,-0.0068
1.2885,0.0247,-0.0418
1.3263,0.0249,-0.0787
1.3657,0.0232,-0.1153
1.4079,0.0215,-0.1517
1.4502,0.0169,-0.1876
1.4893,0.0076,-0.2223
1.523,-0.0044,-0.2563
1.5511,-0.0151,-0.288
1.5741,-0.0239,-0.3169
1.597,-0.0359,-0.3425
1.62,-0.0511,-0.3643
1.641,-0.0665,-0.3809
1.6627,-0.0796,-0.3916
1.6842,-0.0916,-0.3975
1.705,-0.1036,-0.399
1.7241,-0.1158,-0.3958
1.7414,-0.1275,-0.3894
1.7529,-0.1395,-0.3801
1.7571,-0.1537,-0.3677
1.7539,-0.1691,-0.354
1.7443,-0.1852,-0.3379
1.729,-0.2011,-0.3191
1.7092,-0.2172,-0.2983
1.6852,-0.2323,-0.2753
1.6586,-0.2463,-0.2494
1.63,-0.2604,-0.2206
1.6009,-0.2746,-0.1886
1.5714,-0.2873,-0.1537
1.5411,-0.2976,-0.117
1.511,-0.3044,-0.0809
1.4837,-0.3088,-0.0462
1.4573,-0.3098,-0.0147
1.4324,-0.3083,0.0154
1.4096,-0.3034,0.0445
1.3891,-0.2937,0.0706
1.3713,-0.2797,0.095
1.3571,-0.2626,0.1175
1.3488,-0.2424,0.1375
1.3461,-0.2189,0.1564
1.3483,-0.193,0.1735
1.3549,-0.1661,0.1903
1.3659,-0.1395,0.2091
1.3811,-0.1136,0.2311
1.3989,-0.0897,0.256
1.4172,-0.0672,0.2846
1.4346,-0.0462,0.3171
1.4512,-0.0254,0.3533
1.4661,-0.0061,0.3933
1.4785,0.0115,0.4344
1.4866,0.0286,0.4718
1.4893,0.0442,0.5018
1.4805,0.0535,0.513
1.4588,0.0572,0.5094
1.4487,0.066,0.5099
1.4534,0.0752,0.5172
1.4595,0.075,0.5238
1.4558,0.0618,0.5196
1.439,0.0376,0.502
1.4121,0.0039,0.4754
1.3833,-0.0325,0.4493
1.3571,-0.0667,0.4334
1.3351,-0.0958,0.43
1.3161,-0.1185,0.4361
1.2975,-0.1358,0.4485
1.2794,-0.148,0.4637
1.2606,-0.1571,0.4796
1.2423,-0.1617,0.4935
1.2245,-0.1615,0.5052
1.1995,-0.1559,0.514
1.1824,-0.15,0.513
1.1661,-0.1424,0.5064
1.1526,-0.1336,0.4942
1.1438,-0.1246,0.4754
1.1382,-0.1156,0.451
1.1346,-0.1077,0.4236
1.1326,-0.1004,0.3943
1.1324,-0.0933,0.3643
1.1326,-0.086,0.334
1.1336,-0.0787,0.3042
1.1346,-0.0711,0.2758
1.1353,-0.063,0.2516
1.1348,-0.0542,0.2301
1.1341,-0.045,0.2121
1.1343,-0.0366,0.1972
1.1343,-0.0291,0.1871
1.1346,-0.022,0.1825
1.1328,-0.0151,0.183
1.1311,-0.0078,0.1876
1.1294,-0.0017,0.1976
1.1265,0.0044,0.2125
1.1238,0.0098,0.2323
1.1199,0.0139,0.2543
1.117,0.0166,0.279
1.1138,0.0181,0.3042
1.1087,0.0188,0.3283
1.1028,0.0178,0.3525
1.0977,0.0164,0.3762
1.0908,0.0144,0.397
1.0833,0.011,0.4148
1.0754,0.0064,0.43
1.0671,0.001,0.4417
1.0586,-0.0044,0.45
1.0488,-0.0103,0.4561
1.0388,-0.0169,0.4593
1.028,-0.0244,0.4591
1.0166,-0.0315,0.4556
1.0061,-0.0388,0.4485
0.9958,-0.0469,0.4398
0.9853,-0.054,0.4292
0.9745,-0.0608,0.417
0.9645,-0.0677,0.4029
0.9528,-0.0748,0.3875
0.9413,-0.0814,0.3733
0.9291,-0.0858,0.3599
0.9159,-0.0897,0.3452
0.9022,-0.0933,0.3308
0.889,-0.0963,0.3171
0.8766,-0.0987,0.3049
0.8636,-0.1011,0.2937
0.8504,-0.1026,0.2834
0.8375,-0.1036,0.2734
0.8245,-0.1046,0.2648
0.8135,-0.1046,0.2592
0.8109,-0.1002,0.256
0.8067,-0.0972,0.2529
0.7952,-0.0999,0.248
0.7791,-0.1038,0.2431
0.7617,-0.1051,0.2377
0.7444,-0.1051,0.2338
0.73,-0.1043,0.2299
0.7156,-0.1024,0.2262
0.7016,-0.1011,0.2248
0.6899,-0.1011,0.2238
0.6797,-0.1004,0.225
0.6706,-0.0999,0.2287
0.6616,-0.0992,0.2323
0.6533,-0.0982,0.2348
0.6459,-0.098,0.2367
0.6401,-0.0985,0.2416
0.6342,-0.0982,0.2485
0.6303,-0.0982,0.2543
0.6281,-0.0975,0.259
0.6264,-0.0975,0.2634
0.6237,-0.0975,0.2682
0.6196,-0.0982,0.2726
0.6144,-0.0987,0.2763
0.6122,-0.0977,0.28
0.6132,-0.0958,0.2836
0.6127,-0.0938,0.2866
0.6105,-0.0923,0.2875
0.6081,-0.0911,0.2866
0.6069,-0.0892,0.2834
0.6078,-0.086,0.2792
0.6117,-0.0823,0.2739
0.6176,-0.0789,0.2675
0.6259,-0.0752,0.2604
0.6362,-0.0716,0.2526
0.6467,-0.0677,0.2453
0.6569,-0.064,0.2387
0.6679,-0.0591,0.2326
0.6792,-0.0542,0.2265
0.6897,-0.0491,0.2211
0.6992,-0.0435,0.2165
0.707,-0.0376,0.2128
0.7141,-0.0315,0.2108
0.7205,-0.0257,0.2099
0.7271,-0.0198,0.2103
0.7322,-0.0139,0.2118
0.7354,-0.0088,0.213
0.738,-0.0034,0.2145
0.7412,0.002,0.2165
0.7449,0.0071,0.2165
0.7464,0.0112,0.2162
0.7456,0.0139,0.2172
0.7442,0.0156,0.2189
0.7429,0.0186,0.2204
0.7422,0.0222,0.2204
0.742,0.0247,0.2201
0.7415,0.0259,0.2199
0.7407,0.0274,0.2196
0.7415,0.0298,0.2179
0.742,0.0325,0.2165
0.74,0.0349,0.2162
0.738,0.0366,0.2172
0.7359,0.0376,0.2199
0.7339,0.0401,0.2231
0.7319,0.0425,0.2265
0.7305,0.045,0.2299
0.7285,0.0464,0.2336
0.7251,0.0467,0.2387
0.7217,0.0469,0.2441
0.719,0.0479,0.2487
0.7166,0.0486,0.2533
0.7122,0.0486,0.257
0.7073,0.0481,0.2609
0.7036,0.0489,0.2646
0.7012,0.0503,0.2675
0.699,0.0515,0.2695
0.6985,0.0523,0.2702
0.699,0.0525,0.2682
0.6999,0.0525,0.2648
0.7012,0.0535,0.2602
0.7029,0.0535,0.2548
0.7051,0.053,0.2492
0.7073,0.0523,0.2433
0.7097,0.0498,0.2389
0.7109,0.0472,0.2348
0.7134,0.045,0.2301
0.717,0.0418,0.226
0.7212,0.0388,0.2213
0.7241,0.0359,0.2162
0.7263,0.0322,0.2108
0.729,0.0286,0.206
0.7329,0.0257,0.2018
0.7361,0.0215,0.1984
0.738,0.0181,0.1962
0.7412,0.0154,0.1947
0.7464,0.0115,0.1942
0.751,0.0076,0.1947
0.7573,0.0054,0.1967
0.7642,0.0024,0.2001
0.7715,-0.0005,0.205
0.7788,-0.0012,0.2103
0.7857,-0.0007,0.2167
0.7923,-0.0005,0.2231
0.7994,-0.0005,0.2284
0.8062,0.0,0.2336
0.8118,0.0022,0.2402
0.8177,0.0051,0.247
0.8238,0.0081,0.2531
0.8294,0.0117,0.259
0.8363,0.0161,0.2651
0.8421,0.0198,0.2724
0.8458,0.0237,0.279
0.848,0.0276,0.2851
0.8502,0.0327,0.2897
0.8519,0.0369,0.2934
0.8524,0.0408,0.2961
0.8526,0.0442,0.2971
0.8512,0.0479,0.2973
0.8477,0.0513,0.2963
0.8451,0.055,0.2932
0.8416,0.0584,0.2895
0.8367,0.0603,0.2834
0.8319,0.0621,0.2768
0.827,0.0647,0.2714
0.8211,0.0677,0.2663
0.8153,0.0699,0.2614
0.8104,0.0718,0.2577
0.8067,0.074,0.2551
0.804,0.0765,0.2531
0.8021,0.0782,0.2531
0.7981,0.0816,0.2553
0.795,0.0831,0.2595
0.7916,0.0855,0.2673
0.7881,0.088,0.2775
0.7847,0.0894,0.2895
0.7825,0.0904,0.3025
0.7808,0.0914,0.3176
0.7791,0.0906,0.3335
0.7757,0.0836,0.3503
0.7683,0.0662,0.3706
0.7581,0.0464,0.3931
0.7451,0.0308,0.4153
0.7312,0.0176,0.438
0.717,0.0044,0.4627
0.7026,-0.009,0.4871
0.6882,-0.0237,0.5116
0.675,-0.0403,0.5333
0.665,-0.0567,0.5492
0.6618,-0.0718,0.5582
0.6679,-0.0862,0.5602
0.6843,-0.1002,0.5558
0.7107,-0.1134,0.5433
0.7432,-0.1268,0.5223
0.7801,-0.1407,0.4925
0.8196,-0.1549,0.4561
0.8619,-0.1676,0.4146
0.9066,-0.1791,0.3706
0.9528,-0.1884,0.3266
1.0002,-0.1964,0.2836
1.0486,-0.2042,0.2414
1.0964,-0.2111,0.2001
1.1451,-0.2157,0.1598
1.1939,-0.2172,0.119
1.2408,-0.2162,0.0794
1.2858,-0.2135,0.041
1.3293,-0.2113,0.0042
1.3696,-0.2089,-0.0313
1.4062,-0.205,-0.066
1.4419,-0.1996,-0.1009
1.4771,-0.1923,-0.1351
1.5125,-0.183,-0.1654
1.5474,-0.1742,-0.1928
1.5794,-0.1664,-0.2179
1.6085,-0.1573,-0.2411
1.6342,-0.1473,-0.2651
1.6554,-0.1375,-0.2905
1.6718,-0.129,-0.3149
1.6852,-0.1195,-0.3362
1.6967,-0.1104,-0.354
1.7067,-0.1021,-0.3669
1.7165,-0.0958,-0.3726
1.7231,-0.0904,-0.3704
1.7263,-0.086,-0.3604
1.7253,-0.0831,-0.3433
1.7219,-0.0821,-0.3198
1.7163,-0.0814,-0.291
1.7089,-0.0804,-0.257
1.7023,-0.0809,-0.2189
1.6974,-0.0826,-0.1759
1.6933,-0.0833,-0.1309
1.6889,-0.0836,-0.0845
1.6852,-0.0848,-0.0381
1.682,-0.0882,0.01
1.6781,-0.0931,0.0584
1.6733,-0.0992,0.1051
1.6676,-0.1065,0.1507
1.663,-0.1151,0.1947
1.6586,-0.1248,0.235
1.653,-0.1351,0.2719
1.6478,-0.1451,0.3049
1.6417,-0.1556,0.3345
1.6347,-0.1666,0.3611
1.6271,-0.1781,0.384
1.6212,-0.1896,0.4038
1.6176,-0.2003,0.419
1.6151,-0.2094,0.429
1.6151,-0.2189,0.4332
1.6163,-0.2284,0.4322
1.6168,-0.2372,0.4283
1.6171,-0.2455,0.4205
1.6166,-0.2536,0.4095
1.6158,-0.2612,0.3965
1.6151,-0.2695,0.3821
1.6141,-0.2773,0.3665
1.6132,-0.2851,0.3496
1.6127,-0.2932,0.3298
1.6127,-0.3007,0.3073
1.61,-0.3064,0.2822
1.6034,-0.3125,0.257
1.5939,-0.3178,0.2318
1.5802,-0.3203,0.2055
1.5611,-0.3191,0.1786
1.5338,-0.3108,0.1529
1.4988,-0.2939,0.129
1.4588,-0.2712,0.108
1.4167,-0.2463,0.0919
1.3752,-0.2184,0.0799
1.3349,-0.1901,0.0721
1.2973,-0.1627,0.0694
1.2643,-0.1363,0.0706
1.2335,-0.1124,0.0738
1.2032,-0.0899,0.0794
1.1729,-0.0684,0.0872
1.1453,-0.0496,0.0975
1.1238,-0.033,0.1085
1.104,-0.0176,0.1156
1.0845,-0.0049,0.1212
1.0644,0.0042,0.1307
1.0449,0.0103,0.1444
1.0249,0.0144,0.161
1.007,0.0178,0.1801
0.9916,0.0208,0.2003
0.978,0.022,0.2204
0.9662,0.0215,0.2394
0.9569,0.0203,0.2582
0.9496,0.0195,0.2751
0.943,0.0173,0.2888
0.9364,0.0142,0.2998
0.9284,0.0086,0.309
0.9193,0.0017,0.3156
0.91,-0.0054,0.3208
0.9012,-0.0132,0.3242
0.8922,-0.0235,0.3254
0.881,-0.0354,0.3249
0.869,-0.0476,0.3237
0.8573,-0.0594,0.3208
0.846,-0.0716,0.3164
0.8353,-0.0848,0.3103
0.8248,-0.0992,0.3046
0.8155,-0.1136,0.2985
0.8077,-0.1273,0.2915
0.8018,-0.1412,0.2836
0.7969,-0.1544,0.2753
0.7942,-0.1666,0.2675
0.7925,-0.1779,0.2602
0.7918,-0.1888,0.2543
0.7928,-0.1996,0.2485
0.794,-0.2103,0.2428
0.7969,-0.2206,0.2375
0.8016,-0.2301,0.2333
0.8062,-0.238,0.2289
0.8096,-0.2441,0.2238
0.8138,-0.2497,0.2182
0.8184,-0.2553,0.2118
0.8231,-0.2599,0.206
0.8255,-0.2631,0.2008
0.8275,-0.2648,0.1967
0.8294,-0.2656,0.1918
0.8306,-0.2651,0.1864
0.8302,-0.2631,0.1805
0.8287,-0.2609,0.1752
0.828,-0.2577,0.17
0.8272,-0.2541,0.1654
0.826,-0.2509,0.161
0.8245,-0.2463,0.1554
0.8231,-0.2402,0.1493
0.8228,-0.2333,0.1427
0.8221,-0.225,0.1358
0.8211,-0.2157,0.129
0.8204,-0.2069,0.1229
0.8206,-0.1976,0.1163
0.8211,-0.1871,0.1085
0.8226,-0.1766,0.1002
0.8258,-0.1676,0.0921
0.8287,-0.1595,0.0845
0.8324,-0.1495,0.0774
0.837,-0.1388,0.0706
0.8424,-0.1295,0.0665
0.8468,-0.1209,0.0628
0.8512,-0.1138,0.0594
0.8553,-0.1082,0.0569
0.8604,-0.1031,0.053
0.8641,-0.098,0.0486
0.8697,-0.0933,0.0423
0.8732,-0.0914,0.0393
0.8766,-0.0894,0.0379
0.8795,-0.0867,0.0379
0.8817,-0.0836,0.0396
0.8846,-0.0818,0.0435
0.8863,-0.0818,0.0476
0.8876,-0.0833,0.0535
0.8895,-0.0855,0.0599
0.8912,-0.0897,0.0667
0.8917,-0.0945,0.0745
0.8925,-0.0997,0.0823
0.8944,-0.1053,0.0906
0.8978,-0.1116,0.098
0.9022,-0.119,0.1055
0.9086,-0.1268,0.1114
0.9149,-0.1361,0.1156
0.9213,-0.1456,0.12
0.9293,-0.1537,0.1248
0.9408,-0.161,0.1292
0.9521,-0.1673,0.1327
0.9618,-0.1742,0.1351
0.9719,-0.1808,0.1375
0.9816,-0.1854,0.1407
0.9909,-0.1901,0.1434
0.9982,-0.1947,0.1441
1.0039,-0.1976,0.1444
1.0092,-0.2006,0.1444
1.0144,-0.202,0.1437
1.019,-0.2011,0.1422
1.0227,-0.1994,0.1397
1.0244,-0.1969,0.1366
1.0241,-0.1937,0.1334
1.0236,-0.1901,0.1295
1.0227,-0.1862,0.1256
1.021,-0.1827,0.1226
1.018,-0.1781,0.1195
1.0153,-0.1737,0.1173
1.0136,-0.1698,0.1156
1.0119,-0.1664,0.1146
1.0102,-0.1625,0.1143
1.0087,-0.1578,0.1158
1.0073,-0.1532,0.12
1.0073,-0.15,0.1258
1.0063,-0.148,0.1334
1.0031,-0.1466,0.1417
0.9987,-0.1468,0.1517
0.9943,-0.1485,0.1632
0.9894,-0.151,0.1754
0.9843,-0.1537,0.1879
0.9794,-0.1566,0.202
0.9745,-0.161,0.2172
0.9706,-0.1656,0.2328
0.9657,-0.171,0.2489
0.9609,-0.1766,0.2626
0.9555,-0.1823,0.2753
0.9504,-0.1888,0.2875
0.9457,-0.1954,0.2981
0.9411,-0.2023,0.3073
0.9374,-0.2096,0.3152
0.9337,-0.2172,0.321
0.9306,-0.225,0.3254
0.9284,-0.2328,0.3279
0.9257,-0.2399,0.3286
0.9235,-0.2475,0.3266
0.9208,-0.2551,0.3227
0.9198,-0.2621,0.3169
0.9193,-0.269,0.3095
0.9179,-0.2746,0.302
0.9174,-0.2802,0.2937
0.9183,-0.2861,0.2861
0.9208,-0.2929,0.2788
0.9225,-0.299,0.2722
0.923,-0.3034,0.267
0.9242,-0.3078,0.2621
0.9254,-0.3112,0.2577
0.9259,-0.3152,0.2536
0.9262,-0.3188,0.2502
0.9257,-0.3218,0.2475
0.9245,-0.3235,0.2453
0.9223,-0.324,0.2426
0.9198,-0.3254,0.2394
0.9166,-0.3276,0.236
0.9132,-0.331,0.2323
0.9091,-0.3352,0.2292
0.9054,-0.3384,0.226
0.902,-0.3415,0.2216
0.8981,-0.345,0.2172
0.8954,-0.3474,0.2133
0.8934,-0.3498,0.2099
0.8922,-0.3518,0.206
0.8912,-0.354,0.203
0.89,-0.3564,0.202
0.8905,-0.3577,0.202
0.8922,-0.3584,0.2035
0.8937,-0.3596,0.2072
0.8966,-0.3608,0.2123
0.8988,-0.3616,0.2182
0.9,-0.3616,0.2235
0.902,-0.3618,0.2274
0.9049,-0.3611,0.2321
0.9078,-0.3589,0.2375
0.911,-0.3562,0.2433
0.9157,-0.3533,0.2494
0.9208,-0.3481,0.2553
0.9259,-0.3428,0.2607
0.9308,-0.3367,0.2641
0.9364,-0.3296,0.2673
0.942,-0.3213,0.2702
0.9474,-0.3127,0.2724
0.9528,-0.3042,0.2741
0.9565,-0.2956,0.2746
0.9587,-0.2861,0.2753
0.9606,-0.2751,0.2746
0.9618,-0.2634,0.2712
0.9616,-0.2533,0.266
0.9606,-0.2438,0.2604
0.9591,-0.2336,0.2551
0.9569,-0.2233,0.2492
0.9543,-0.2123,0.2443
0.9516,-0.2013,0.2389
0.9486,-0.191,0.234
0.945,-0.181,0.2309
0.9398,-0.1717,0.2272
0.9328,-0.1627,0.2233
0.9252,-0.1544,0.2189
0.9169,-0.1473,0.2145
0.9078,-0.1417,0.2101
0.8988,-0.1358,0.205
0.8893,-0.13,0.1998
0.8793,-0.1246,0.1942
0.8697,-0.1207,0.1879
0.8617,-0.117,0.1818
0.8536,-0.1143,0.1752
0.8473,-0.1131,0.1686
0.8436,-0.1126,0.1639
0.8426,-0.1131,0.1603
0.8424,-0.1138,0.1561
0.8441,-0.1163,0.1527
0.8473,-0.1236,0.1485
0.847,-0.127,0.1454
0.8451,-0.1278,0.1459
0.8436,-0.1295,0.1498
0.8453,-0.1324,0.1544
0.8512,-0.1356,0.1588
0.859,-0.141,0.1644
0.8705,-0.1495,0.1681
0.8844,-0.1581,0.1698
0.8964,-0.1664,0.1671
0.9056,-0.1737,0.1605
0.9144,-0.1786,0.1495
0.9237,-0.1793,0.1334
0.9335,-0.1779,0.1129
0.9445,-0.1764,0.0867
0.956,-0.1766,0.0552
0.9701,-0.1796,0.0222
0.9865,-0.1847,-0.0103
1.0053,-0.1913,-0.0396
1.0271,-0.1979,-0.0643
1.0491,-0.2042,-0.084
1.0737,-0.2113,-0.0994
1.0996,-0.2199,-0.1119
1.1265,-0.2299,-0.1224
1.1541,-0.2399,-0.1319
1.1815,-0.2492,-0.1424
1.2079,-0.259,-0.1561
1.2342,-0.2697,-0.171
1.2782,-0.2849,-0.1959
1.3092,-0.2971,-0.2121
1.3395,-0.3108,-0.2272
1.3696,-0.3242,-0.2428
1.396,-0.3327,-0.2582
1.4184,-0.3315,-0.268
1.4434,-0.3296,-0.268
1.469,-0.3376,-0.2656
1.4859,-0.3516,-0.2707
1.4898,-0.3635,-0.2849
1.4829,-0.3733,-0.3012
1.4646,-0.3814,-0.3178
1.4331,-0.3836,-0.3342
1.3916,-0.3765,-0.3457
1.3513,-0.3582,-0.3491
1.319,-0.3308,-0.342
1.2978,-0.2971,-0.3257
1.2853,-0.2607,-0.3027
1.2785,-0.224,-0.2773
1.275,-0.1867,-0.2538
1.2716,-0.1517,-0.2318
1.2653,-0.1195,-0.2125
1.256,-0.0855,-0.195
1.2447,-0.0513,-0.1786
1.2325,-0.0213,-0.1642
1.2179,0.0027,-0.1527
1.1998,0.023,-0.1451
1.1793,0.043,-0.1393
1.1587,0.0608,-0.1317
1.1387,0.0743,-0.1236
1.1172,0.0843,-0.1158
1.0938,0.0916,-0.1085
1.0684,0.097,-0.1009
1.0405,0.0997,-0.0928
1.0117,0.0997,-0.0855
0.9826,0.0977,-0.0782
0.9508,0.0943,-0.0699
0.9176,0.0904,-0.0606
0.8849,0.0853,-0.0506
0.8541,0.0777,-0.0374
0.825,0.0684,-0.021
0.7984,0.0581,-0.0037
0.7759,0.0472,0.0137
0.7561,0.0354,0.033
0.74,0.023,0.0533
0.7297,0.01,0.0745
0.7268,-0.0039,0.0987
0.7329,-0.0208,0.1263
0.7476,-0.0393,0.1546
0.7705,-0.0589,0.183
0.7999,-0.0801,0.2106
0.8341,-0.1014,0.2345
0.8712,-0.1224,0.2529
0.9096,-0.1429,0.2665
0.9484,-0.163,0.2763
0.988,-0.1827,0.2802
1.0283,-0.2013,0.278
1.0679,-0.2184,0.2712
1.1052,-0.235,0.2612
1.1409,-0.2472,0.247
1.1736,-0.2555,0.2318
1.2032,-0.266,0.214
1.2298,-0.2778,0.1945
1.253,-0.2856,0.1749
1.2723,-0.2905,0.1551
1.2902,-0.2927,0.1351
1.3051,-0.2922,0.1148
1.318,-0.2888,0.0955
1.3276,-0.2834,0.076
1.3356,-0.2792,0.0564
1.341,-0.2739,0.0376
1.343,-0.2665,0.0217
1.3432,-0.2563,0.01
1.3408,-0.245,-0.0002
1.3349,-0.2362,-0.0083
1.3261,-0.2296,-0.0134
1.3144,-0.225,-0.0154
1.299,-0.2206,-0.0154
1.2811,-0.2157,-0.0139
1.2601,-0.2113,-0.0105
1.2367,-0.2084,-0.0034
1.2118,-0.2062,0.0068
1.1868,-0.2045,0.0195
1.1649,-0.204,0.0337
1.1456,-0.2042,0.0501
1.1282,-0.2045,0.0665
1.1113,-0.2038,0.0831
1.0969,-0.203,0.1014
1.0845,-0.2069,0.1163
1.0723,-0.2081,0.1285
1.0627,-0.2023,0.1434
1.0498,-0.2069,0.1556
1.0337,-0.2125,0.1634
1.019,-0.2138,0.17
1.0031,-0.2187,0.1744
0.9885,-0.2216,0.1776
0.975,-0.2238,0.1801
0.9601,-0.2296,0.1801
0.945,-0.2355,0.1788
0.933,-0.2382,0.1786
0.922,-0.238,0.1803
0.913,-0.2362,0.181
0.9074,-0.2348,0.1835
0.9042,-0.2316,0.1867
0.9022,-0.2262,0.1898
0.902,-0.2206,0.193
0.9039,-0.2138,0.1969
0.9069,-0.2074,0.2013
0.9118,-0.1998,0.2055
0.9171,-0.1903,0.2099
0.9235,-0.1805,0.2145
0.9308,-0.1717,0.2172
0.9386,-0.1627,0.2177
0.945,-0.1522,0.2177
0.9506,-0.1412,0.2155
0.9552,-0.1309,0.2111
0.9574,-0.1219,0.2057
0.9591,-0.1131,0.2001
0.9599,-0.1063,0.1923
0.9574,-0.1004,0.1825
0.9521,-0.096,0.171
0.9464,-0.0923,0.159
0.9394,-0.0889,0.1471
0.9325,-0.0867,0.1346
0.9257,-0.085,0.1226
0.9193,-0.0828,0.1129
0.9122,-0.0814,0.1038
0.9044,-0.0804,0.095
0.8976,-0.0796,0.0877
0.8925,-0.0794,0.0806
0.8878,-0.0789,0.0745
0.8832,-0.0799,0.0708
0.8788,-0.0821,0.0679
0.8751,-0.0845,0.064
0.8717,-0.088,0.0608
0.8685,-0.0919,0.0581
0.8666,-0.095,0.0569
0.8653,-0.0985,0.0574
0.868,-0.096,0.0613
0.8775,-0.0882,0.0687
0.8849,-0.0843,0.076
0.8844,-0.0897,0.0792
0.8795,-0.0994,0.0816
0.8749,-0.1102,0.0843
0.8712,-0.1207,0.0867
0.869,-0.1307,0.0909
0.8675,-0.1395,0.0958
0.8663,-0.1483,0.1002
0.8656,-0.1583,0.1063
0.8656,-0.1671,0.1138
0.8661,-0.1752,0.1207
0.8675,-0.1798,0.1278
0.8705,-0.1832,0.1358
0.8727,-0.1867,0.1434
0.8778,-0.1862,0.1498
0.8873,-0.1823,0.1561
0.9015,-0.1766,0.1617
0.9179,-0.1713,0.1654
0.934,-0.1661,0.1664
0.9506,-0.161,0.1649
0.9662,-0.1556,0.162
0.9787,-0.1517,0.1581
0.9887,-0.1488,0.1544
0.9958,-0.1461,0.151
0.9995,-0.1427,0.1476
0.9999,-0.139,0.1439
0.9987,-0.1358,0.14
0.9958,-0.1339,0.1361
0.9914,-0.1322,0.1341
0.9865,-0.1309,0.1331
0.9775,-0.1292,0.1324
0.9721,-0.1283,0.1327
0.9657,-0.1268,0.1346
0.9579,-0.1251,0.139
0.9496,-0.1231,0.1449
0.9428,-0.1217,0.1517
0.9364,-0.12,0.1586
0.9301,-0.118,0.1654
0.9237,-0.1163,0.1732
0.9174,-0.1138,0.1818
0.9113,-0.1109,0.1913
0.9049,-0.1082,0.2003
0.8988,-0.106,0.2086
0.8932,-0.1031,0.2165
0.8883,-0.0999,0.2231
0.8834,-0.0965,0.2292
0.879,-0.0933,0.235
0.8761,-0.0916,0.2397
0.8724,-0.0897,0.2438
0.8688,-0.087,0.2492
0.8661,-0.0867,0.2553
0.8631,-0.0887,0.2612
0.8609,-0.0906,0.2668
0.858,-0.0945,0.2719
0.8541,-0.0999,0.2775
0.8502,-0.1051,0.2836
0.8455,-0.1112,0.2883
0.8402,-0.1197,0.2922
0.8338,-0.128,0.2944
0.8267,-0.1363,0.2954
0.8194,-0.1454,0.2946
0.8113,-0.1551,0.2924
0.8025,-0.1654,0.2902
0.7938,-0.1749,0.288
0.785,-0.1845,0.2858
0.7769,-0.1947,0.2849
0.7705,-0.203,0.2844
0.7749,-0.2055,0.2841
0.7872,-0.2047,0.2866
0.784,-0.2196,0.288
0.7747,-0.2355,0.2888
0.7608,-0.248,0.2849
0.7464,-0.2555,0.277
0.7329,-0.2619,0.2714
0.7207,-0.2685,0.2685
0.7104,-0.2753,0.2663
0.7012,-0.2807,0.2665
0.6914,-0.2856,0.2675
0.6826,-0.2907,0.2687
0.675,-0.2946,0.2702
0.6684,-0.2983,0.2719
0.6621,-0.3025,0.2751
0.6572,-0.3071,0.2792
0.655,-0.313,0.2841
0.654,-0.3196,0.2895
0.653,-0.3247,0.2946
0.653,-0.3303,0.2988
0.6533,-0.3374,0.3025
0.653,-0.3433,0.3064
0.653,-0.3464,0.309
0.6569,-0.3474,0.3105
0.6643,-0.344,0.313
0.6775,-0.3379,0.3174
0.6963,-0.3308,0.321
0.719,-0.3227,0.3227
0.7439,-0.3142,0.3215
0.7696,-0.3071,0.3178
0.7947,-0.301,0.3117
0.8189,-0.2949,0.3027
0.8421,-0.2883,0.2907
0.8653,-0.2817,0.277
0.8881,-0.2753,0.2619
0.9093,-0.268,0.2465
0.9296,-0.2599,0.2296
0.9489,-0.2521,0.2113
0.9662,-0.2441,0.1925
0.9814,-0.235,0.1737
0.9948,-0.2262,0.1534
1.007,-0.2169,0.1314
1.0205,-0.2064,0.1112
1.0341,-0.1962,0.0926
1.0478,-0.1854,0.0733
1.0605,-0.1744,0.0528
1.073,-0.1637,0.0325
1.0857,-0.1529,0.0134
1.0989,-0.1412,-0.0029
1.1113,-0.129,-0.0181
1.1238,-0.1151,-0.0322
1.1368,-0.1004,-0.0445
1.1482,-0.0848,-0.054
1.1592,-0.0691,-0.0608
1.1702,-0.054,-0.0655
1.1815,-0.0398,-0.0672
1.192,-0.0261,-0.0667
1.2015,-0.012,-0.0638
1.2091,0.0027,-0.0579
1.2149,0.0161,-0.0498
1.2196,0.0298,-0.0381
1.2215,0.0428,-0.0235
1.2208,0.0547,-0.0068
1.2174,0.0672,0.0105
1.21,0.0794,0.0286
1.1993,0.0901,0.0467
1.1856,0.1014,0.064
1.1705,0.1116,0.0799
1.1526,0.1197,0.0958
1.1333,0.1256,0.1121
1.1133,0.1314,0.1283
1.0925,0.1368,0.1444
1.0706,0.141,0.16
1.0473,0.1449,0.1754
1.0251,0.1483,0.1896
1.0017,0.1505,0.2013
0.9792,0.1502,0.2123
0.9572,0.1488,0.2206
0.9352,0.1466,0.2274
0.9147,0.1439,0.2321
0.8946,0.1405,0.2358
0.8766,0.1353,0.2414
0.858,0.13,0.2475
0.8399,0.1244,0.2521
0.8231,0.1168,0.2573
0.8062,0.1077,0.2624
0.7891,0.0989,0.2678
0.7725,0.0916,0.2731
0.7547,0.0833,0.2795
0.7361,0.0743,0.2858
0.7192,0.066,0.2907
0.7036,0.0569,0.2934
0.6904,0.0476,0.2951
0.6799,0.0379,0.2939
0.6674,0.0279,0.2924
0.655,0.0186,0.2924
0.6452,0.009,0.2932
0.6376,0.0002,0.291
0.6325,-0.0078,0.2841
0.6293,-0.0147,0.2731
0.6286,-0.0217,0.2587
0.6315,-0.0296,0.2402
0.6391,-0.0393,0.215
0.6506,-0.0552,0.1788
0.6645,-0.0789,0.1273
0.6779,-0.1087,0.0613
0.6858,-0.1397,-0.011
0.6887,-0.1683,-0.0794
0.6875,-0.1915,-0.1371
0.685,-0.206,-0.183
0.6863,-0.213,-0.2194
0.6938,-0.2169,-0.2489
0.708,-0.2194,-0.2812
0.728,-0.2209,-0.3205
0.7522,-0.2233,-0.3687
0.7823,-0.224,-0.4246
0.8184,-0.2253,-0.4842
0.8626,-0.2265,-0.5414
0.9118,-0.2274,-0.5949
0.9579,-0.2282,-0.6445
1.0068,-0.2243,-0.6855
1.0674,-0.2138,-0.7109
1.1402,-0.2013,-0.718
1.221,-0.1918,-0.706
1.309,-0.1825,-0.6799
1.4006,-0.1695,-0.6503
1.4964,-0.1568,-0.6203
1.5899,-0.1461,-0.5922
1.6625,-0.1427,-0.5839
1.7497,-0.1459,-0.5771
1.8135,-0.1424,-0.5578
1.8807,-0.1336,-0.5243
1.9503,-0.1246,-0.4759
2.0238,-0.1207,-0.4055
2.0993,-0.1202,-0.3193
2.1709,-0.1207,-0.2343
2.2396,-0.1219,-0.1529
2.3036,-0.1248,-0.0743
2.3598,-0.1287,0.0007
2.4067,-0.1336,0.0726
2.4401,-0.1405,0.1397
2.4533,-0.152,0.1989
2.4372,-0.1727,0.245
2.3786,-0.203,0.2687
2.2762,-0.2358,0.2643
2.1484,-0.2626,0.2387
2.0143,-0.2817,0.2047
1.8856,-0.2954,0.1715
1.7668,-0.3061,0.1454
1.661,-0.3132,0.1295
1.5763,-0.3134,0.1226
1.5123,-0.3149,0.118
1.458,-0.3247,0.1075
1.4074,-0.3393,0.0921
1.3583,-0.353,0.0735
1.3092,-0.3645,0.053
1.2609,-0.3748,0.0327
1.21,-0.3848,0.0149
1.1539,-0.3965,-0.0015
1.094,-0.4075,-0.0161
1.0356,-0.4148,-0.0293
0.9765,-0.4207,-0.0379
0.9171,-0.4258,-0.042
0.8604,-0.4295,-0.0459
0.8082,-0.4332,-0.0481
0.7598,-0.4371,-0.0459
0.7139,-0.441,-0.0398
0.6721,-0.4471,-0.0298
0.635,-0.4561,-0.0144
0.6039,-0.4622,0.0039
0.579,-0.4639,0.0203
0.557,-0.4654,0.0366
0.5394,-0.4696,0.0557
0.525,-0.4735,0.0748
0.513,-0.4742,0.0919
0.5055,-0.4713,0.107
0.5064,-0.4647,0.1224
0.5192,-0.4537,0.141
0.5438,-0.4398,0.1634
0.5797,-0.4253,0.1857
0.6242,-0.4119,0.2038
0.6709,-0.4004,0.2152
0.717,-0.3909,0.2189
0.7617,-0.3819,0.2152
0.8045,-0.374,0.2038
0.8443,-0.3662,0.1862
0.8815,-0.3584,0.1632
0.9154,-0.3506,0.1349
0.9442,-0.343,0.1031
0.9697,-0.3362,0.0691
0.9938,-0.3303,0.0352
1.0178,-0.3249,0.0027
1.0398,-0.3183,-0.0288
1.0588,-0.3098,-0.0601
1.0745,-0.3,-0.0904
1.0864,-0.291,-0.12
1.0967,-0.28,-0.1463
1.1052,-0.2675,-0.1698
1.1099,-0.2558,-0.1901
1.1121,-0.2446,-0.2057
1.1123,-0.2318,-0.2165
1.1116,-0.2187,-0.2235
1.1094,-0.2042,-0.2262
1.106,-0.1901,-0.2243
1.0999,-0.1742,-0.2194
1.0896,-0.1578,-0.2096
1.0774,-0.1419,-0.1947
1.0632,-0.1261,-0.1776
1.0491,-0.1107,-0.1588
1.0341,-0.0965,-0.1353
1.0202,-0.0853,-0.1094
1.007,-0.0755,-0.0814
0.9933,-0.0667,-0.052
0.9794,-0.0586,-0.022
0.9655,-0.053,0.0086
0.9533,-0.0493,0.0384
0.9406,-0.0464,0.0679
0.9279,-0.0459,0.0967
0.9139,-0.0467,0.1234
0.9003,-0.0472,0.1478
0.8868,-0.0498,0.1703
0.8744,-0.0547,0.1891
0.8617,-0.0611,0.2047
0.849,-0.0679,0.2174
0.837,-0.076,0.2279
0.8265,-0.0843,0.2345
0.8162,-0.0933,0.237
0.8072,-0.1041,0.2348
0.8013,-0.1156,0.2296
0.7977,-0.1266,0.2231
0.795,-0.1388,0.215
0.794,-0.151,0.2055
0.7947,-0.1625,0.1952
0.7984,-0.1739,0.1845
0.8025,-0.1852,0.173
0.8084,-0.1969,0.16
0.8177,-0.2079,0.1473
0.8284,-0.2199,0.1363
0.8399,-0.2321,0.1273
0.8529,-0.2428,0.1209
0.8656,-0.2531,0.1165
0.8775,-0.2636,0.1134
0.8898,-0.2741,0.1124
0.9025,-0.2853,0.1138
0.9149,-0.2961,0.1173
0.9271,-0.3076,0.1212
0.9376,-0.3186,0.1246
0.9464,-0.3269,0.13
0.9579,-0.3352,0.1375
0.9699,-0.3467,0.1439
0.9784,-0.3604,0.1495
0.9863,-0.3726,0.1554
0.9929,-0.3831,0.162
0.998,-0.3899,0.1705
1.0031,-0.397,0.1793
1.0075,-0.4051,0.1842
1.0114,-0.4117,0.1881
1.0141,-0.4178,0.1903
1.0158,-0.4219,0.1915
1.0163,-0.4236,0.1932
1.0161,-0.4241,0.1952
1.0156,-0.4239,0.1972
1.0156,-0.4229,0.1991
1.0158,-0.4207,0.2003
1.0161,-0.4185,0.202
1.0156,-0.4153,0.2035
1.0131,-0.4104,0.2033
1.0095,-0.4046,0.2028
1.0039,-0.3985,0.2023
0.9965,-0.3926,0.2006
0.9863,-0.3867,0.1957
0.975,-0.3797,0.1884
0.9628,-0.3716,0.1805
0.9486,-0.3626,0.173
0.9342,-0.3523,0.1637
0.9208,-0.3408,0.1537
0.9096,-0.3296,0.1446
0.901,-0.3176,0.1361
0.8934,-0.3049,0.1278
0.8871,-0.2919,0.1202
0.8832,-0.2788,0.1141
0.8793,-0.266,0.1114
0.8744,-0.2543,0.1116
0.8707,-0.2436,0.1141
0.8675,-0.2326,0.1187
0.8651,-0.2213,0.1253
0.8626,-0.2106,0.1331
0.859,-0.2035,0.1419
0.8565,-0.1974,0.152
0.8551,-0.1913,0.1612
0.8543,-0.1862,0.1693
0.8551,-0.1827,0.1776
0.8573,-0.1818,0.1852
0.8607,-0.183,0.1918
0.8678,-0.1879,0.2011
0.8734,-0.1925,0.2052
0.8778,-0.1984,0.2084
0.8817,-0.205,0.2096
0.8856,-0.2113,0.2096
0.8907,-0.2172,0.2081
0.8966,-0.2235,0.206
0.9025,-0.2287,0.2033
0.9078,-0.2333,0.1994
0.9132,-0.2367,0.1947
0.9193,-0.2384,0.1903
0.9257,-0.2394,0.1864
0.9315,-0.2406,0.182
0.9367,-0.2419,0.1783
0.9416,-0.2419,0.1744
0.9452,-0.2414,0.1695
0.9486,-0.2416,0.1656
0.9513,-0.2426,0.162
0.9533,-0.2431,0.1588
0.954,-0.2436,0.1556
0.954,-0.2453,0.1534
0.9523,-0.247,0.1517
0.9499,-0.2472,0.1488
0.9457,-0.2467,0.1466
0.9401,-0.2458,0.1441
0.935,-0.2443,0.1405
0.9306,-0.2438,0.1366
0.9259,-0.2431,0.1324
0.9201,-0.2411,0.1275
0.9149,-0.2382,0.1236
0.9108,-0.2353,0.1222
0.9081,-0.2316,0.1214
0.9066,-0.2257,0.1222
0.9059,-0.2191,0.1253
0.9054,-0.213,0.1297
0.9056,-0.2079,0.1363
0.9054,-0.2013,0.1446
0.9052,-0.1935,0.1527
0.9049,-0.1849,0.161
0.9044,-0.1764,0.1698
0.9042,-0.1686,0.1793
0.903,-0.1617,0.1881
0.9012,-0.1556,0.1945
0.8993,-0.1485,0.2001
0.8971,-0.1419,0.2057
0.8944,-0.1378,0.2111
0.891,-0.1346,0.2179
0.8883,-0.1309,0.2257
0.8851,-0.1283,0.2333
0.8827,-0.1261,0.2404
0.8802,-0.1248,0.2467
0.8775,-0.1239,0.2526
0.8758,-0.1241,0.2573
0.8746,-0.1258,0.2592
0.8741,-0.1275,0.2592
0.8751,-0.1309,0.2582
0.8763,-0.1353,0.256
0.8778,-0.1402,0.2521
0.8793,-0.1459,0.2472
0.8819,-0.1522,0.2409
0.8861,-0.1586,0.2323
0.8903,-0.1661,0.2213
0.8954,-0.1732,0.2106
0.8988,-0.1791,0.2003
0.9022,-0.1847,0.1891
0.9064,-0.1898,0.1781
0.9113,-0.1947,0.1678
0.9157,-0.1984,0.1581
0.9193,-0.2018,0.1471
0.9225,-0.2045,0.1371
0.9257,-0.2069,0.1295
0.9279,-0.2086,0.1236
0.9296,-0.2099,0.1195
0.9311,-0.2108,0.1158
0.9315,-0.2108,0.1136
0.9323,-0.2099,0.1131
0.932,-0.2099,0.1136
0.9318,-0.2094,0.1163
0.9313,-0.2084,0.1202
0.9298,-0.2072,0.1244
0.9276,-0.2055,0.1305
0.9252,-0.2042,0.1378
0.9227,-0.2033,0.1471
0.9196,-0.2013,0.1566
0.9159,-0.1989,0.1659
0.9105,-0.1976,0.1754
0.9037,-0.1964,0.1852
0.8961,-0.1945,0.1947
0.8903,-0.1925,0.2042
0.8851,-0.191,0.2128
0.8795,-0.1886,0.2199
0.8739,-0.1862,0.2277
0.8678,-0.1845,0.2358
0.8624,-0.1823,0.2428
0.858,-0.1803,0.2499
0.8529,-0.1779,0.2563
0.8477,-0.1752,0.2614
0.8436,-0.1727,0.2653
0.8394,-0.1705,0.268
0.8346,-0.1686,0.2697
0.8309,-0.1678,0.2709
0.827,-0.1669,0.2709
0.8228,-0.1664,0.2707
0.8196,-0.1669,0.2714
0.8174,-0.1681,0.2724
0.8157,-0.1691,0.2741
0.814,-0.1705,0.2758
0.8121,-0.1727,0.2775
0.8111,-0.1759,0.2792
0.8106,-0.1805,0.2805
0.8099,-0.1847,0.2819
0.8099,-0.1886,0.2832
0.8116,-0.1928,0.2851
0.8138,-0.1969,0.2856
0.8157,-0.2008,0.2861
0.8184,-0.206,0.288
0.8209,-0.2118,0.2897
0.8238,-0.2165,0.2915
0.8272,-0.2209,0.2939
0.8306,-0.225,0.2956
0.8348,-0.2284,0.2978
0.8399,-0.2318,0.3003
0.8451,-0.2358,0.302
0.8504,-0.2384,0.3029
0.856,-0.2421,0.3042
0.8609,-0.245,0.3061
0.8673,-0.2465,0.3086
0.8724,-0.2482,0.3115
0.8771,-0.2499,0.3134
0.8829,-0.2521,0.3149
0.8873,-0.2536,0.3164
0.89,-0.2546,0.3171
0.8932,-0.2555,0.3164
0.8944,-0.256,0.3152
0.8951,-0.2563,0.3149
0.8956,-0.256,0.3159
0.8949,-0.256,0.3166
0.8932,-0.257,0.3171
0.89,-0.2573,0.3188
0.8861,-0.2568,0.3196
0.8805,-0.2558,0.3186
0.8744,-0.2546,0.3166
0.8668,-0.2543,0.3147
0.858,-0.2541,0.3115
0.848,-0.2533,0.3086
0.838,-0.2521,0.3051
0.8275,-0.2502,0.3005
0.817,-0.248,0.2961
0.8067,-0.2467,0.2917
0.7947,-0.2455,0.2875
0.7837,-0.2436,0.2827
0.773,-0.2421,0.2783
0.7622,-0.2409,0.2734
0.7525,-0.2399,0.269
0.7442,-0.2382,0.2646
0.7361,-0.2362,0.2595
0.7285,-0.234,0.2553
0.7224,-0.2309,0.2526
0.7183,-0.2272,0.2509
0.7166,-0.2245,0.2494
0.7161,-0.2221,0.2475
0.7166,-0.2189,0.2467
0.719,-0.216,0.2475
0.7249,-0.2135,0.2475
0.7334,-0.2108,0.2475
0.7429,-0.2084,0.2492
0.7593,-0.205,0.2555
0.771,-0.2023,0.2604
0.7835,-0.1994,0.2675
0.7969,-0.1969,0.2768
0.8109,-0.1935,0.2863
0.8233,-0.1908,0.2951
0.8346,-0.1874,0.3042
0.8455,-0.1835,0.3132
0.856,-0.1798,0.3218
0.8653,-0.1761,0.3279
0.8736,-0.173,0.3347
0.8802,-0.17,0.342
0.8851,-0.1669,0.3481
0.8876,-0.1627,0.3528
0.8878,-0.1583,0.3555
0.8861,-0.1549,0.3569
0.8815,-0.152,0.3562
0.8722,-0.148,0.353
0.8597,-0.1437,0.3459
0.8455,-0.1395,0.3342
0.8287,-0.1344,0.32
0.8111,-0.1287,0.3051
0.793,-0.1236,0.291
0.7754,-0.1187,0.2778
0.7571,-0.1141,0.2643
0.739,-0.1094,0.2509
0.7207,-0.106,0.2389
0.7026,-0.1019,0.2282
0.685,-0.097,0.2179
0.6682,-0.0921,0.2086
0.6523,-0.0875,0.1994
0.6354,-0.0826,0.1906
0.6193,-0.0772,0.1827
0.6044,-0.0718,0.1761
0.59,-0.0665,0.1703
0.5753,-0.0625,0.1652
0.5619,-0.0601,0.1593
0.5538,-0.0618,0.152
0.5492,-0.0638,0.1437
0.5438,-0.0625,0.1407
0.5355,-0.0599,0.141
0.524,-0.0552,0.1402
0.5126,-0.0508,0.1405
0.503,-0.0481,0.1419
0.4947,-0.0445,0.1454
0.4876,-0.0384,0.1512
0.4806,-0.0332,0.1595
0.4747,-0.0293,0.1691
0.4708,-0.0254,0.1791
0.4693,-0.0208,0.1906
0.4693,-0.0169,0.2033
0.47,-0.0132,0.2157
0.4715,-0.0098,0.2274
0.4757,-0.0071,0.2399
0.484,-0.0064,0.2526
0.4952,-0.0076,0.2646
0.5094,-0.0093,0.2746
0.5272,-0.0122,0.2819
0.546,-0.0178,0.2858
0.5656,-0.0244,0.2873
0.5849,-0.0303,0.288
0.6022,-0.0359,0.2861
0.6176,-0.0415,0.2812
0.6325,-0.0472,0.2756
0.6467,-0.0533,0.27
0.6589,-0.0586,0.2639
0.6714,-0.0633,0.2595
0.6838,-0.0699,0.2555
0.696,-0.0772,0.2516
0.7082,-0.0836,0.2487
0.7219,-0.0916,0.2475
0.7359,-0.0999,0.2492
0.7486,-0.1085,0.2546
0.7605,-0.1158,0.2624
0.7737,-0.1229,0.2724
0.7884,-0.1317,0.2844
0.803,-0.1405,0.2971
0.8172,-0.149,0.311
0.8309,-0.1593,0.3259
0.8455,-0.1695,0.3413
0.8612,-0.1788,0.3574
0.8768,-0.1874,0.3735
0.8917,-0.1959,0.3894
0.9064,-0.2052,0.4046
0.921,-0.215,0.4207
0.934,-0.2238,0.4358
0.9469,-0.2326,0.4485
0.9587,-0.2411,0.4605
0.9692,-0.2489,0.471
0.9789,-0.2565,0.4806
0.986,-0.2643,0.4886
0.9919,-0.2712,0.4945
0.997,-0.2778,0.4994
1.0014,-0.2846,0.5033
1.0039,-0.2905,0.5064
1.0034,-0.2956,0.5082
1.0007,-0.3012,0.5079
0.9958,-0.3066,0.5069
0.988,-0.3105,0.5055
0.9775,-0.3132,0.503
0.9655,-0.3152,0.5008
0.9516,-0.3171,0.4989
0.9367,-0.3186,0.4969
0.9208,-0.3196,0.4955
0.9052,-0.3205,0.4942
0.8888,-0.3203,0.494
0.8727,-0.3198,0.494
0.8568,-0.3186,0.4955
0.8419,-0.3144,0.4969
0.8275,-0.3088,0.4991
0.8131,-0.3034,0.5018
0.8008,-0.2985,0.5042
0.7913,-0.2919,0.5064
0.7835,-0.2844,0.5086
0.7764,-0.2748,0.5106
0.7701,-0.2624,0.5126
0.7679,-0.2519,0.513
0.7693,-0.2455,0.5104
0.7747,-0.2392,0.5077
0.7818,-0.2318,0.506
0.7911,-0.2235,0.5057
0.8028,-0.2155,0.506
0.8135,-0.2074,0.504
0.8258,-0.2011,0.4991
0.8416,-0.1972,0.4911
0.8595,-0.1957,0.4791
0.8768,-0.1954,0.4634
0.8946,-0.1979,0.4439
0.9152,-0.2033,0.4202
0.9367,-0.2108,0.395
0.9582,-0.2199,0.3677
0.9809,-0.2301,0.3401
1.0051,-0.2424,0.312
1.0305,-0.2555,0.2832
1.0569,-0.2675,0.2548
1.0837,-0.2785,0.226
1.1099,-0.2893,0.1942
1.135,-0.2995,0.161
1.1605,-0.3083,0.128
1.1873,-0.3161,0.0938
1.214,-0.323,0.0601
1.2406,-0.3286,0.0274
1.2682,-0.333,-0.0032
1.297,-0.334,-0.0303
1.3271,-0.3342,-0.054
1.3574,-0.334,-0.0748
1.3869,-0.3318,-0.0936
1.4172,-0.3274,-0.1124
1.4482,-0.321,-0.1292
1.4776,-0.3139,-0.1439
1.5279,-0.3032,-0.161
1.5616,-0.3017,-0.1713
1.5914,-0.3029,-0.1818
1.6246,-0.2978,-0.1879
1.6618,-0.288,-0.192
1.6992,-0.278,-0.1957
1.7346,-0.2682,-0.1981
1.7676,-0.2573,-0.1998
1.7974,-0.245,-0.202
1.8242,-0.2316,-0.204
1.843,-0.2147,-0.2113
1.8421,-0.1984,-0.2338
1.8416,-0.183,-0.2502
1.8499,-0.162,-0.2543
1.8611,-0.1375,-0.2531
1.8711,-0.1138,-0.2509
1.8794,-0.0916,-0.2485
1.8875,-0.0696,-0.246
1.8941,-0.0474,-0.2436
1.8992,-0.0247,-0.2433
1.9024,-0.0024,-0.2426
1.9022,0.0195,-0.2392
1.9005,0.041,-0.2311
1.8956,0.0625,-0.2194
1.8912,0.0877,-0.202
1.8853,0.1119,-0.1803
1.8707,0.1331,-0.1576
1.8416,0.1505,-0.1353
1.7996,0.1625,-0.116
1.7483,0.1703,-0.0994
1.6918,0.1761,-0.0816
1.6349,0.1788,-0.063
1.5797,0.1781,-0.0445
1.5281,0.1742,-0.0249
1.4815,0.1693,-0.0037
1.4375,0.1637,0.0178
1.3996,0.1564,0.0398
1.3664,0.1485,0.0652
1.3386,0.1402,0.0941
1.3144,0.1312,0.1241
1.2931,0.1214,0.1539
1.2755,0.1121,0.1845
1.2604,0.1043,0.2152
1.2467,0.098,0.2441
1.2335,0.0941,0.269
1.2213,0.0901,0.2895
1.21,0.0855,0.3059
1.1991,0.0816,0.3186
1.1878,0.0777,0.3281
1.1773,0.0713,0.3342
1.1666,0.0635,0.3371
1.1558,0.0555,0.3381
1.1441,0.0462,0.3369
1.1333,0.0359,0.3332
1.1231,0.0254,0.3266
1.1128,0.0115,0.32
1.1018,-0.0039,0.3125
1.0899,-0.0203,0.3029
1.0779,-0.0374,0.2917
1.0671,-0.0552,0.2797
1.0574,-0.0733,0.2678
1.0481,-0.0906,0.2555
1.0405,-0.1075,0.2443
1.0351,-0.1239,0.2331
1.031,-0.1385,0.2245
1.0285,-0.1522,0.2174
1.0273,-0.1652,0.2111
1.0273,-0.1771,0.2089
1.0283,-0.1891,0.2089
1.0322,-0.2003,0.2099
1.039,-0.2111,0.2135
1.0478,-0.2201,0.2184
1.0574,-0.2284,0.2228
1.0686,-0.237,0.2272
1.0813,-0.2443,0.2309
1.0952,-0.2497,0.234
1.1099,-0.2546,0.236
1.1248,-0.2597,0.2355
1.1372,-0.2643,0.2333
1.1502,-0.2668,0.2309
1.1629,-0.2685,0.2262
1.1746,-0.2697,0.2204
1.1844,-0.2704,0.2138
1.1934,-0.2695,0.2077
1.2025,-0.2678,0.2003
1.2105,-0.2656,0.1925
1.2184,-0.2621,0.184
1.2237,-0.2585,0.1752
1.2272,-0.2553,0.1666
1.2279,-0.2526,0.1593
1.2276,-0.2485,0.1534
1.2264,-0.2441,0.1483
1.2237,-0.2406,0.1437
1.2188,-0.2377,0.1402
1.2118,-0.2343,0.1375
1.2015,-0.2296,0.1361
1.1898,-0.226,0.1356
1.1758,-0.2228,0.1353
1.1585,-0.2201,0.1358
1.139,-0.2179,0.1385
1.1197,-0.215,0.1429
1.1001,-0.2123,0.148
1.0825,-0.2099,0.1532
1.0652,-0.2081,0.1598
1.0471,-0.2064,0.1671
1.0271,-0.2047,0.1752
1.0051,-0.2023,0.1823
0.9833,-0.2003,0.1871
0.9609,-0.1989,0.1925
0.9401,-0.1979,0.1984
0.9198,-0.1969,0.2033
0.9003,-0.1967,0.2084
0.8822,-0.1969,0.2133
0.8658,-0.1954,0.2169
0.8512,-0.1925,0.2216
0.8394,-0.1874,0.2277
0.8265,-0.1862,0.2331
0.8111,-0.1867,0.2367
0.7942,-0.1879,0.2394
0.7771,-0.1879,0.2406
0.7581,-0.1864,0.2411
0.7393,-0.184,0.2416
0.7224,-0.1808,0.2428
0.7051,-0.1786,0.2441
0.6865,-0.1761,0.245
0.6694,-0.1737,0.2467
0.653,-0.1708,0.2494
0.6369,-0.1669,0.2516
0.6222,-0.1627,0.2521
0.6088,-0.1598,0.2521
0.5981,-0.1559,0.2541
0.5863,-0.1527,0.2575
0.5766,-0.1498,0.2604
0.5695,-0.1459,0.2641
0.5582,-0.1446,0.266
0.5482,-0.1424,0.268
0.5426,-0.139,0.27
0.5397,-0.1341,0.2734
0.5402,-0.1292,0.2775
0.5428,-0.1231,0.2822
0.5482,-0.1158,0.2866
0.556,-0.1085,0.2897
0.5656,-0.1024,0.2919
0.5775,-0.0963,0.2922
0.59,-0.0901,0.2917
0.6025,-0.0848,0.2902
0.6142,-0.0789,0.2863
0.6237,-0.0735,0.2814
0.6323,-0.0682,0.2773
0.6401,-0.0635,0.2726
0.6477,-0.0581,0.2668
0.6535,-0.0523,0.2612
0.6582,-0.0474,0.2553
0.6626,-0.044,0.2494
0.6672,-0.0415,0.2438
0.6721,-0.0376,0.2387
0.6758,-0.0352,0.2345
0.6787,-0.0332,0.2309
0.6821,-0.0325,0.227
0.6887,-0.0305,0.2228
0.6933,-0.0293,0.2201
0.6985,-0.0283,0.2184
0.7046,-0.0286,0.2177
0.7112,-0.0291,0.2162
0.717,-0.0288,0.2155
0.7222,-0.0283,0.215
0.7273,-0.0288,0.214
0.7329,-0.03,0.214
0.7383,-0.0313,0.2145
0.7442,-0.0322,0.215
0.7495,-0.0332,0.2165
0.7542,-0.0335,0.2177
0.7583,-0.0342,0.2201
0.7613,-0.0354,0.2233
0.7639,-0.0366,0.2274
0.7664,-0.0379,0.2301
0.7676,-0.0371,0.2326
0.7674,-0.0349,0.2355
0.7657,-0.0342,0.2387
0.7635,-0.0342,0.2409
0.7598,-0.0337,0.2431
0.7539,-0.0322,0.2472
0.7461,-0.0303,0.2507
0.7383,-0.0293,0.2533
0.729,-0.0281,0.2577
0.7183,-0.0269,0.2617
0.7065,-0.0252,0.2646
0.6943,-0.0242,0.2665
0.6806,-0.023,0.2675
0.6677,-0.0222,0.2685
0.6547,-0.0215,0.2687
0.6411,-0.0195,0.2682
0.6271,-0.0178,0.2682
0.6125,-0.0178,0.269
0.5978,-0.0171,0.2697
0.5824,-0.0156,0.2712
0.5675,-0.0132,0.2726
0.5534,-0.0115,0.2746
0.5392,-0.0115,0.2766
0.526,-0.0122,0.2778
0.5135,-0.0132,0.2795
0.5025,-0.0147,0.2814
0.4925,-0.0166,0.2836
0.4832,-0.0181,0.2861
0.4744,-0.02,0.288
0.4669,-0.022,0.289
0.4608,-0.0239,0.2912
0.4561,-0.0264,0.2939
0.4525,-0.0291,0.2966
0.4493,-0.0313,0.2976
0.4493,-0.0342,0.2993
0.452,-0.0362,0.3017
0.4569,-0.0374,0.3051
0.4639,-0.0384,0.3088
0.471,-0.0398,0.312
0.4786,-0.0403,0.3142
0.4881,-0.0398,0.3142
0.4979,-0.0381,0.3137
0.5084,-0.0366,0.313
0.5199,-0.0362,0.3122
0.5336,-0.0349,0.312
0.549,-0.0332,0.3112
0.5639,-0.0325,0.3086
0.5783,-0.032,0.3049
0.5915,-0.0322,0.3012
0.6032,-0.033,0.2968
0.613,-0.033,0.29
0.6218,-0.0332,0.2829
0.6298,-0.0332,0.2766
0.6345,-0.0337,0.2697
0.6381,-0.0359,0.2604
0.6386,-0.0371,0.2489
0.6364,-0.0354,0.2392
0.6352,-0.0327,0.2316
0.6342,-0.0315,0.2231
0.6345,-0.0318,0.2123
0.6352,-0.0327,0.2001
0.6352,-0.0347,0.1891
0.6364,-0.0376,0.1793
0.6389,-0.0398,0.1708
0.6413,-0.041,0.1627
0.6455,-0.0418,0.1564
0.6525,-0.0423,0.1517
0.6626,-0.0435,0.1502
0.674,-0.0457,0.1522
0.6828,-0.0464,0.1568
0.6916,-0.0437,0.1656
0.7043,-0.0398,0.1779
0.7239,-0.0359,0.1925
0.7481,-0.0332,0.2086
0.7723,-0.031,0.226
0.7964,-0.0286,0.2446
0.8201,-0.0261,0.2641
0.8419,-0.0232,0.2827
0.8644,-0.02,0.3003
0.8883,-0.0173,0.3166
0.9125,-0.0147,0.3345
0.9364,-0.0125,0.352
0.9618,-0.01,0.3689
0.9877,-0.0076,0.3838
1.0131,-0.0049,0.3977
1.0378,-0.0029,0.4112
1.0608,-0.0002,0.4226
1.0828,0.0024,0.4312
1.103,0.0051,0.4368
1.1204,0.0071,0.4402
1.1346,0.0083,0.4398
1.1446,0.0088,0.4344
1.1509,0.0086,0.4253
1.1534,0.0068,0.4121
1.1524,0.0022,0.3941
1.147,-0.0064,0.3728
1.136,-0.0183,0.3474
1.1206,-0.0325,0.3191
1.1016,-0.0459,0.2895
1.0791,-0.0589,0.2626
1.0552,-0.0726,0.2404
1.0302,-0.0862,0.2223
1.0061,-0.1007,0.2077
0.9833,-0.1158,0.1945
0.9621,-0.1307,0.1825
0.9425,-0.1441,0.172
0.9254,-0.1559,0.1622
0.912,-0.1664,0.1529
0.9015,-0.1749,0.1432
0.8944,-0.1805,0.1322
0.8927,-0.1837,0.1192
0.8986,-0.1849,0.1068
0.9118,-0.1857,0.0955
0.932,-0.1854,0.0858
0.9591,-0.183,0.0792
0.9914,-0.1786,0.076
1.0278,-0.1732,0.0755
1.0671,-0.1666,0.0779
1.1092,-0.1586,0.0826
1.1531,-0.1483,0.0877
1.1976,-0.1371,0.0916
1.2416,-0.1268,0.0943
1.2851,-0.117,0.0967
1.3288,-0.107,0.0985
1.3713,-0.0975,0.0977
1.4123,-0.0894,0.0936
1.4509,-0.0816,0.0862
1.4883,-0.0745,0.075
1.525,-0.0689,0.0586
1.5592,-0.0655,0.041
1.589,-0.0633,0.021
1.6173,-0.0616,-0.0029
1.6464,-0.0625,-0.0432
1.6571,-0.0662,-0.0718
1.672,-0.0647,-0.097
1.6899,-0.0611,-0.1195
1.7065,-0.0581,-0.1407
1.7202,-0.0584,-0.1612
1.7329,-0.0599,-0.1774
1.7448,-0.0652,-0.1896
1.7556,-0.0721,-0.2013
1.7639,-0.0809,-0.2135
1.7685,-0.0926,-0.2257
1.7683,-0.1082,-0.237
1.7617,-0.1261,-0.2453
1.749,-0.1459,-0.248
1.7319,-0.1649,-0.2436
1.7138,-0.1847,-0.2294
1.6955,-0.2062,-0.2067
1.6777,-0.2272,-0.1786
1.662,-0.2465,-0.1468
1.6476,-0.2648,-0.1112
1.6332,-0.2827,-0.0743
1.618,-0.299,-0.0369
1.6034,-0.3147,-0.0002
1.5868,-0.3279,0.0354
1.5689,-0.3393,0.0704
1.5501,-0.3489,0.1038
1.5298,-0.3545,0.1346
1.5086,-0.356,0.1654
1.4871,-0.3555,0.1957
1.4666,-0.3523,0.2255
1.4463,-0.3464,0.2563
1.4263,-0.3376,0.2875
1.4057,-0.3276,0.3191
1.3828,-0.3161,0.3496
1.3588,-0.3032,0.3782
1.3344,-0.29,0.4058
1.3105,-0.2763,0.4319
1.2855,-0.2631,0.4564
1.2587,-0.2494,0.4793
1.2298,-0.2355,0.4999
1.2013,-0.2221,0.5179
1.1734,-0.2099,0.5323
1.146,-0.1998,0.5431
1.1194,-0.1913,0.5526
1.0935,-0.1832,0.5619
1.0671,-0.1757,0.5702
1.0412,-0.1698,0.5763
1.0166,-0.1661,0.5812
0.9929,-0.1634,0.5856
0.9709,-0.1625,0.5885
0.9489,-0.1637,0.5895
0.9291,-0.1678,0.5878
0.9115,-0.1725,0.5836
0.8959,-0.1788,0.5771
0.8829,-0.1867,0.5673
0.8714,-0.1959,0.5563
0.8619,-0.2062,0.5433
0.8558,-0.2169,0.5279
0.8519,-0.2274,0.5113
0.8495,-0.2387,0.494
0.8497,-0.2492,0.4749
0.8526,-0.2595,0.4542
0.8585,-0.2695,0.4319
0.868,-0.279,0.4095
0.8788,-0.2868,0.387
0.8907,-0.2932,0.3657
0.9039,-0.2983,0.3457
0.9183,-0.3012,0.3271
0.933,-0.3027,0.31
0.9486,-0.3025,0.2939
0.9655,-0.3022,0.2792
0.9821,-0.301,0.2658
0.9992,-0.2995,0.2551
1.0163,-0.2993,0.246
1.0322,-0.3003,0.2399
1.0481,-0.3012,0.237
1.0635,-0.3012,0.236
1.0803,-0.302,0.2372
1.0982,-0.3042,0.2404
1.1167,-0.3044,0.2433
1.1353,-0.3029,0.2458
1.1517,-0.3025,0.247
1.1653,-0.3017,0.2511
1.1773,-0.2998,0.2575
1.1873,-0.2966,0.2636
1.1954,-0.2924,0.2692
1.203,-0.2885,0.2729
1.2066,-0.2834,0.2748
1.2088,-0.2768,0.2744
1.2098,-0.2687,0.2719
1.2081,-0.2597,0.268
1.2037,-0.2509,0.2626
1.1978,-0.2411,0.2568
1.19,-0.2314,0.2504
1.18,-0.2209,0.2438
1.1671,-0.2099,0.2375
1.1514,-0.1984,0.2306
1.1346,-0.1862,0.2235
1.1172,-0.1742,0.2167
1.0996,-0.1632,0.2103
1.0825,-0.1517,0.205
1.064,-0.1402,0.1989
1.0422,-0.1295,0.1923
1.0192,-0.1195,0.1859
0.9955,-0.1097,0.1798
0.9721,-0.1011,0.1754
0.9484,-0.0931,0.1715
0.9267,-0.0862,0.1691
0.9069,-0.0792,0.1669
0.8851,-0.0733,0.1649
0.8609,-0.0679,0.1627
0.836,-0.0638,0.1603
0.8106,-0.0606,0.1576
0.785,-0.0572,0.1571
0.76,-0.055,0.1573
0.7359,-0.0533,0.1583
0.7129,-0.0508,0.16
0.6909,-0.0486,0.1627
0.6701,-0.0484,0.1666
0.6501,-0.0481,0.171
0.6301,-0.0476,0.1757
0.6115,-0.0476,0.1805
0.5942,-0.0486,0.1842
0.579,-0.0493,0.1886
0.5651,-0.0503,0.1932
0.5538,-0.0528,0.1964
0.5472,-0.0572,0.1981
0.5416,-0.0606,0.1976
0.5321,-0.0618,0.1989
0.5216,-0.063,0.2008
0.5113,-0.0638,0.202
0.504,-0.0667,0.2003
0.4974,-0.0696,0.1974
0.4918,-0.0716,0.1952
0.4881,-0.074,0.194
0.4849,-0.0774,0.192
0.4835,-0.0792,0.1903
0.4835,-0.0799,0.1884
0.4849,-0.0816,0.1849
0.4889,-0.0828,0.1803
0.4947,-0.0836,0.1759
0.5028,-0.0845,0.1715
0.5148,-0.0855,0.1676
0.5282,-0.087,0.1634
0.5436,-0.088,0.16
0.5609,-0.0892,0.1576
0.578,-0.0911,0.1544
0.5956,-0.0916,0.151
0.6132,-0.0928,0.1485
0.6313,-0.0941,0.1476
0.6481,-0.095,0.1468
0.6628,-0.0958,0.1466
0.6762,-0.096,0.148
0.6899,-0.0975,0.1517
0.7021,-0.0982,0.1561
0.7119,-0.0999,0.1615
0.72,-0.1024,0.1673
0.7275,-0.1051,0.1747
0.7356,-0.1092,0.1813
0.742,-0.1134,0.1874
0.7468,-0.117,0.1937
0.752,-0.1224,0.1996
0.7576,-0.1268,0.204
0.7637,-0.1297,0.2084
0.7693,-0.1324,0.2118
0.7747,-0.1366,0.2138
0.781,-0.1415,0.2157
0.7876,-0.1459,0.2174
0.7955,-0.1493,0.2184
0.8028,-0.1529,0.2184
0.8123,-0.1586,0.2189
0.8182,-0.1615,0.2201
0.8231,-0.1637,0.2213
0.827,-0.1652,0.2223
0.8292,-0.1669,0.2248
0.8289,-0.1681,0.2267
0.8275,-0.1688,0.2272
0.824,-0.1693,0.227
0.8194,-0.1693,0.2245
0.8113,-0.1678,0.2206
0.8008,-0.1654,0.2177
0.7874,-0.163,0.2138
0.7732,-0.1603,0.2099
0.7591,-0.1573,0.205
0.7432,-0.1537,0.1998
0.7271,-0.149,0.1967
0.7114,-0.1441,0.195
0.6968,-0.1393,0.1935
0.6826,-0.1346,0.1923
0.6687,-0.129,0.1923
0.656,-0.1231,0.193
0.6437,-0.1175,0.1945
0.6328,-0.1124,0.1969
0.623,-0.1065,0.2006
0.613,-0.1009,0.205
0.6037,-0.096,0.2099
0.5954,-0.0906,0.2169
0.5873,-0.086,0.2262
0.5795,-0.0818,0.237
0.5724,-0.0789,0.2477
0.5648,-0.0765,0.2599
0.557,-0.0757,0.2736
0.5494,-0.0762,0.2863
0.5421,-0.0774,0.2968
0.5372,-0.0796,0.3071
0.5363,-0.0796,0.3198
0.5348,-0.0811,0.3323
0.527,-0.088,0.3406
0.5174,-0.0953,0.3459
0.5101,-0.1019,0.3506
0.5062,-0.1087,0.3555
0.5096,-0.1151,0.3601
0.5157,-0.1192,0.3626
0.5091,-0.1244,0.363
0.4996,-0.1327,0.3638
0.4911,-0.1424,0.365
0.484,-0.151,0.3621
0.4774,-0.1568,0.3557
0.4722,-0.1617,0.3481
0.4691,-0.1644,0.342
0.4644,-0.1652,0.3367
0.4608,-0.1656,0.3325
0.4625,-0.1669,0.3271
0.471,-0.1693,0.3203
0.4857,-0.1705,0.3142
0.5038,-0.1705,0.3093
0.524,-0.17,0.3059
0.548,-0.17,0.3042
0.5751,-0.1703,0.3037
0.6044,-0.1713,0.3042
0.6352,-0.1737,0.3056
0.6665,-0.1752,0.3086
0.6987,-0.1757,0.3115
0.7322,-0.1759,0.3154
0.7647,-0.1766,0.3191
0.7984,-0.1766,0.3213
0.8338,-0.1774,0.3218
0.87,-0.1783,0.32
0.9074,-0.1793,0.3152
0.9455,-0.182,0.3076
0.9848,-0.1859,0.2961
1.0251,-0.1891,0.2805
1.0671,-0.1901,0.2617
1.1121,-0.1952,0.2389
1.1563,-0.2042,0.2118
1.1986,-0.213,0.1823
1.2401,-0.2221,0.1549
1.2816,-0.2301,0.129
1.3229,-0.2362,0.0994
1.3627,-0.2426,0.0687
1.3994,-0.2494,0.0379
1.4331,-0.2536,0.0083
1.4641,-0.2563,-0.0198
1.4947,-0.2599,-0.0457
1.5257,-0.2663,-0.0696
1.554,-0.2717,-0.0919
1.5819,-0.2758,-0.1109
1.6083,-0.279,-0.1275
1.6322,-0.2822,-0.14
1.6542,-0.2856,-0.151
1.6742,-0.2873,-0.1615
1.6921,-0.2888,-0.1727
1.7099,-0.2919,-0.1827
1.728,-0.2973,-0.191
1.7446,-0.3034,-0.2008
1.7597,-0.3088,-0.2118
1.7732,-0.3137,-0.2204
1.7832,-0.3164,-0.2265
1.7917,-0.3161,-0.2299
1.8,-0.3115,-0.2301
1.8054,-0.3039,-0.2292
1.8071,-0.2924,-0.2267
1.8066,-0.2775,-0.2235
1.8059,-0.2607,-0.2167
1.8044,-0.2424,-0.2057
1.801,-0.2216,-0.1918
1.7961,-0.1981,-0.1744
1.7908,-0.1735,-0.1544
1.7842,-0.1483,-0.1336
1.7778,-0.1231,-0.1121
1.7715,-0.0987,-0.0894
1.7641,-0.075,-0.0657
1.7553,-0.0523,-0.0403
1.7451,-0.0305,-0.0142
1.7338,-0.0095,0.0129
1.7202,0.0122,0.041
1.705,0.0332,0.0708
1.6911,0.0515,0.1021
1.6786,0.0674,0.1329
1.6654,0.0821,0.1637
1.6513,0.095,0.1935
1.6369,0.107,0.2231
1.6215,0.1173,0.2521
1.6068,0.1241,0.2797
1.5931,0.1278,0.3059
1.5794,0.1287,0.3286
1.5658,0.1273,0.3464
1.5521,0.1222,0.3604
1.5396,0.1134,0.3704
1.5262,0.0997,0.3779
1.512,0.0814,0.3833
1.4988,0.0574,0.3855
1.4851,0.0291,0.3836
1.4724,-0.0024,0.3799
1.4595,-0.033,0.3743
1.4468,-0.0633,0.3674
1.4341,-0.0909,0.3613
1.4209,-0.1158,0.3557
1.4072,-0.1385,0.3516
1.3935,-0.1598,0.3486
1.3789,-0.1781,0.3476
1.364,-0.1932,0.3479
1.3486,-0.2069,0.3498
1.3317,-0.2191,0.3535
1.3149,-0.2289,0.3582
1.2973,-0.236,0.3628
1.2785,-0.2416,0.3655
1.2589,-0.2455,0.3665
1.2401,-0.2475,0.365
1.2208,-0.2472,0.3618
1.2015,-0.245,0.3567
1.1842,-0.2421,0.3501
1.1673,-0.2377,0.342
1.1512,-0.2301,0.3327
1.1365,-0.2221,0.3215
1.1241,-0.215,0.3081
1.1118,-0.2064,0.2941
1.1013,-0.1972,0.2817
1.0923,-0.1893,0.2704
1.0847,-0.1827,0.2607
1.0781,-0.1769,0.2526
1.0752,-0.1703,0.246
1.0745,-0.1647,0.2431
1.073,-0.1593,0.2433
1.073,-0.1507,0.2482
1.0759,-0.1441,0.2565
1.0793,-0.138,0.2673
1.084,-0.1309,0.28
1.0884,-0.1236,0.2944
1.0918,-0.1158,0.3103
1.0942,-0.108,0.3259
1.096,-0.1004,0.3408
1.0972,-0.0936,0.3542
1.0974,-0.087,0.3674
1.0974,-0.0804,0.3804
1.0955,-0.0728,0.3914
1.0913,-0.066,0.3997
1.0859,-0.0608,0.4065
1.0806,-0.0567,0.4112
1.0747,-0.0533,0.4129
1.0671,-0.0496,0.4121
1.0586,-0.0467,0.4095
1.05,-0.0437,0.4048
1.0417,-0.0418,0.399
1.0329,-0.0418,0.3914
1.0227,-0.042,0.3821
1.0109,-0.0425,0.3721
0.9987,-0.0432,0.3623
0.9872,-0.0445,0.3528
0.9755,-0.0462,0.3423
0.9613,-0.0481,0.3318
0.945,-0.0498,0.3218
0.9279,-0.052,0.3112
0.9105,-0.0535,0.299
0.8929,-0.0545,0.2875
0.8722,-0.0567,0.2773
0.8504,-0.0589,0.2685
0.8289,-0.0601,0.2612
0.8052,-0.0613,0.2558
0.7815,-0.0633,0.2499
0.7571,-0.0652,0.2446
0.7312,-0.0669,0.2409
0.7043,-0.0691,0.238
0.6792,-0.0708,0.2362
0.6584,-0.0711,0.2362
0.6494,-0.0682,0.2387
0.6393,-0.0652,0.2428
0.6186,-0.0682,0.2453
0.5927,-0.073,0.2492
0.5687,-0.0772,0.2524
0.5465,-0.0804,0.2531
0.5262,-0.0836,0.2526
0.5079,-0.0872,0.2524
0.4906,-0.0909,0.2531
0.4754,-0.0945,0.2546
0.462,-0.098,0.2563
0.4505,-0.1024,0.259
0.4407,-0.1065,0.2614
0.4327,-0.1116,0.2636
0.427,-0.1175,0.267
0.4222,-0.1236,0.2704
0.4187,-0.1297,0.2729
0.417,-0.1368,0.2751
0.4161,-0.1439,0.2753
0.4136,-0.1512,0.2756
0.4107,-0.1586,0.2756
0.409,-0.1659,0.2736
0.4075,-0.1722,0.2702
0.4046,-0.1781,0.2682
0.4002,-0.184,0.2685
0.397,-0.1893,0.27
0.3963,-0.1947,0.2707
0.3999,-0.1972,0.2709
0.4085,-0.1957,0.2717
0.4239,-0.191,0.2758
0.4466,-0.1849,0.2822
0.4749,-0.1774,0.2885
0.5074,-0.1688,0.2934
0.5419,-0.1608,0.2946
0.5763,-0.1542,0.2944
0.6098,-0.1473,0.2922
0.6418,-0.1415,0.2878
0.6706,-0.1366,0.2797
0.697,-0.1309,0.2712
0.7209,-0.1251,0.2634
0.7422,-0.1195,0.256
0.7622,-0.1141,0.2492
0.7803,-0.1082,0.2431
0.7955,-0.1019,0.2387
0.8082,-0.095,0.234
0.8204,-0.0872,0.2301
0.8311,-0.0794,0.2262
0.8389,-0.0723,0.2235
0.8433,-0.0647,0.2226
0.8463,-0.0572,0.2226
0.8485,-0.0501,0.2235
0.8504,-0.0442,0.2245
0.8519,-0.0369,0.2255
0.8524,-0.0305,0.2255
0.8519,-0.0254,0.226
0.8482,-0.0203,0.2262
0.8414,-0.0144,0.2265
0.8341,-0.0078,0.227
0.8262,-0.002,0.2267
0.8177,0.0032,0.225
0.8074,0.0071,0.2231
0.7952,0.0103,0.2206
0.782,0.0134,0.2172
0.7679,0.0161,0.2128
0.7525,0.0171,0.2086
0.7366,0.0186,0.2064
0.7197,0.0205,0.2042
0.7034,0.022,0.2038
0.6872,0.023,0.2035
0.6721,0.0252,0.202
0.6574,0.0279,0.2006
0.6435,0.0303,0.2006
0.6301,0.0325,0.2008
0.6161,0.0352,0.2018
0.6032,0.0386,0.2035
0.592,0.041,0.2069
0.5836,0.0408,0.2089
0.578,0.0403,0.2091
0.5717,0.043,0.2113
0.5651,0.0476,0.2172
0.5597,0.0523,0.224
0.5568,0.0572,0.2299
0.556,0.0613,0.234
0.5563,0.0643,0.2372
0.5548,0.0655,0.2397
0.5541,0.0647,0.2421
0.5546,0.0608,0.2421
0.557,0.0555,0.2399
0.5595,0.0572,0.2397
0.5621,0.0586,0.2426
0.5663,0.0567,0.2436
0.5714,0.0518,0.2421
0.578,0.0476,0.2404
0.5873,0.045,0.2392
0.5986,0.0396,0.2375
0.611,0.0318,0.234
0.6225,0.0232,0.2299
0.6335,0.0147,0.2253
0.6425,0.0078,0.2206
0.6506,0.0024,0.2182
0.6567,-0.002,0.2165
0.6608,-0.0054,0.2152
0.6665,-0.0088,0.216
0.6718,-0.0105,0.2177
0.6762,-0.0107,0.2216
0.6819,-0.0105,0.2265
0.6894,-0.0098,0.2321
0.6992,-0.0078,0.2382
0.7107,-0.0051,0.2455
0.7234,-0.0022,0.2548
0.7376,0.0022,0.2636
0.7547,0.0086,0.2726
0.7723,0.0164,0.2836
0.792,0.0254,0.2976
0.8135,0.0352,0.3127
0.8355,0.0457,0.3283
0.8587,0.0559,0.345
0.8827,0.0662,0.3608
0.9061,0.0762,0.377
0.9293,0.085,0.3931
0.9523,0.0933,0.4073
0.9758,0.1011,0.4192
0.9975,0.1077,0.429
1.0158,0.1138,0.4368
1.0376,0.1217,0.4441
1.0495,0.1239,0.4441
1.0586,0.1244,0.4412
1.0657,0.1222,0.4349
1.0698,0.1163,0.4244
1.0693,0.1068,0.4073
1.0644,0.0931,0.384
1.0549,0.0784,0.3567
1.0429,0.064,0.3293
1.0305,0.0469,0.3066
1.0166,0.0261,0.288
1.0026,0.0039,0.2702
0.9894,-0.02,0.2531
0.976,-0.0435,0.2375
0.9628,-0.0652,0.2223
0.9511,-0.0855,0.2094
0.9416,-0.106,0.2006
0.9354,-0.1258,0.1954
0.9318,-0.1441,0.1937
0.9303,-0.16,0.194
0.932,-0.1742,0.1937
0.9389,-0.1852,0.192
0.9526,-0.195,0.1898
0.9721,-0.2033,0.1884
0.9963,-0.2106,0.1891
1.0229,-0.2155,0.191
1.0525,-0.2191,0.1937
1.0852,-0.2216,0.1969
1.1184,-0.2213,0.2003
1.1526,-0.2179,0.206
1.1883,-0.2125,0.2113
1.2237,-0.2052,0.2165
1.2592,-0.1964,0.2211
1.2948,-0.1867,0.2248
1.3298,-0.1757,0.227
1.3649,-0.1632,0.227
1.3977,-0.151,0.2238
1.427,-0.1378,0.2172
1.4551,-0.1246,0.2111
1.4732,-0.1185,0.2006
1.4846,-0.1126,0.1862
1.5037,-0.098,0.1747
1.5289,-0.0811,0.1639
1.5531,-0.0682,0.1515
1.5724,-0.0569,0.1351
1.588,-0.0484,0.1143
1.599,-0.0428,0.0897
1.6056,-0.0384,0.0618
1.6088,-0.0359,0.0322
1.6083,-0.0349,0.0017
1.6051,-0.0337,-0.0266
1.6022,-0.0344,-0.0528
1.5956,-0.0379,-0.0767
1.5841,-0.0432,-0.0987
1.5689,-0.0511,-0.1173
1.5501,-0.0618,-0.1314
1.5274,-0.0748,-0.1393
1.5027,-0.0887,-0.1397
1.4766,-0.1021,-0.1317
1.4507,-0.1153,-0.1173
1.4272,-0.1305,-0.0943
1.4072,-0.1483,-0.0625
1.3928,-0.1669,-0.0247
1.382,-0.1864,0.0188
1.3752,-0.2081,0.0635
1.3715,-0.2301,0.1065
1.3725,-0.2514,0.1468
1.3742,-0.2731,0.1837
1.3759,-0.2944,0.2177
1.3794,-0.3147,0.2482
1.385,-0.3335,0.2763
1.3935,-0.3516,0.3037
1.4023,-0.3669,0.3293
1.4099,-0.3799,0.3523
1.4177,-0.3904,0.3743
1.4265,-0.399,0.3948
1.4346,-0.4051,0.4146
1.4417,-0.4082,0.4327
1.446,-0.409,0.449
1.4478,-0.4063,0.4664
1.447,-0.3994,0.4837
1.4451,-0.3894,0.4991
1.4419,-0.376,0.5118
1.437,-0.3601,0.5221
1.4294,-0.3433,0.5319
1.417,-0.3252,0.5411
1.3999,-0.3081,0.5494
1.3796,-0.2924,0.5585
1.3561,-0.2785,0.5675
1.3302,-0.2663,0.5756
1.3024,-0.2546,0.5814
1.2736,-0.2448,0.5861
1.2457,-0.237,0.5885
1.2186,-0.2306,0.5883
1.1922,-0.2257,0.5871
1.1656,-0.2216,0.5866
1.1394,-0.2177,0.5868
1.115,-0.2123,0.5885
1.0923,-0.2077,0.5924
1.0703,-0.204,0.5968
1.0486,-0.2006,0.6017
1.0276,-0.1979,0.6059
1.0078,-0.1947,0.61
0.9892,-0.1918,0.6154
0.9709,-0.1884,0.621
0.9533,-0.1864,0.6259
0.9369,-0.1845,0.6301
0.921,-0.1835,0.6318
0.9056,-0.1837,0.6315
0.8915,-0.1847,0.6284
0.879,-0.1867,0.623
0.8683,-0.1884,0.6154
0.8604,-0.1893,0.6054
0.8546,-0.1903,0.5932
0.8512,-0.1925,0.5788
0.8514,-0.195,0.5621
0.8548,-0.1964,0.5448
0.8609,-0.1976,0.5253
0.869,-0.1986,0.505
0.878,-0.1994,0.4852
0.8883,-0.1986,0.4647
0.9,-0.1972,0.4439
0.9113,-0.1952,0.4236
0.9203,-0.1923,0.4031
0.9289,-0.1881,0.3828
0.9379,-0.183,0.363
0.9452,-0.1774,0.3437
0.9513,-0.1717,0.3237
0.956,-0.1664,0.3037
0.9587,-0.159,0.2846
0.9616,-0.151,0.2668
0.9631,-0.1439,0.2511
0.964,-0.1368,0.2365
0.9635,-0.1295,0.2228
0.9631,-0.1209,0.2106
0.9621,-0.1121,0.2003
0.9596,-0.1038,0.1896
0.956,-0.0965,0.1791
0.9521,-0.0889,0.1717
0.9482,-0.0814,0.1639
0.944,-0.0738,0.1566
0.9389,-0.0669,0.15
0.9328,-0.0608,0.1454
0.9269,-0.0542,0.1429
0.9208,-0.0479,0.1422
0.9135,-0.043,0.1415
0.9059,-0.0388,0.141
0.8988,-0.0362,0.141
0.892,-0.0349,0.1439
0.8841,-0.034,0.148
0.8763,-0.0335,0.1527
0.868,-0.0327,0.1573
0.858,-0.0337,0.1617
0.8482,-0.0357,0.1669
0.8387,-0.0381,0.1717
0.828,-0.0413,0.1761
0.8174,-0.045,0.181
0.8065,-0.0491,0.1845
0.7947,-0.0537,0.1867
0.7825,-0.0581,0.1884
0.7698,-0.0623,0.1906
0.7578,-0.0662,0.192
0.7459,-0.0711,0.1935
0.7341,-0.0762,0.1942
0.7214,-0.0811,0.1942
0.7087,-0.0848,0.1942
0.6958,-0.0872,0.195
0.6772,-0.0911,0.1962
0.666,-0.0953,0.1964
0.6582,-0.1004,0.1954
0.6525,-0.106,0.1925
0.6437,-0.1087,0.1903
0.6328,-0.1085,0.1898
0.6213,-0.1077,0.1886
0.6105,-0.1075,0.1862
0.6017,-0.1082,0.1825
0.5934,-0.109,0.1791
0.5861,-0.1097,0.1761
0.5814,-0.1109,0.1713
0.5775,-0.1124,0.1654
0.5739,-0.1131,0.1603
0.5702,-0.1124,0.1549
0.567,-0.1107,0.1495
0.5646,-0.107,0.1444
0.5653,-0.1058,0.138
0.5673,-0.1041,0.1285
0.569,-0.098,0.1207
0.5697,-0.0901,0.1148
0.5717,-0.0814,0.1094
0.5763,-0.0716,0.1043
0.5827,-0.0623,0.0987
0.5939,-0.054,0.095
0.6115,-0.0479,0.0916
0.6335,-0.0447,0.088
0.6565,-0.0432,0.0833
0.6792,-0.042,0.0784
0.6994,-0.0396,0.0745
0.719,-0.0366,0.0716
0.7376,-0.0325,0.0704
0.7544,-0.0274,0.0696
0.7691,-0.0227,0.0696
0.7825,-0.0176,0.0718
0.7947,-0.012,0.075
0.8057,-0.0076,0.0777
0.814,-0.0037,0.0821
0.8187,0.0005,0.0882
0.8196,0.0015,0.0941
0.8189,0.0029,0.1019
0.8179,0.0081,0.1141
0.8172,0.0115,0.1278
0.816,0.0115,0.1419
0.8138,0.0095,0.1559
0.8089,0.0068,0.1693
0.8013,0.0027,0.1815
0.7933,-0.0032,0.192
0.7832,-0.0107,0.2035
0.774,-0.0188,0.216
0.7654,-0.0281,0.2284
0.7581,-0.0384,0.2411
0.7527,-0.0481,0.2524
0.7471,-0.0584,0.2629
0.7415,-0.0677,0.2734
0.7361,-0.077,0.2829
0.7322,-0.086,0.291
0.729,-0.0943,0.2985
0.7256,-0.1031,0.3046
0.7212,-0.1112,0.3093
0.7185,-0.1187,0.3144
0.7141,-0.1256,0.3178
0.7082,-0.1319,0.3208
0.7029,-0.1375,0.3252
0.6985,-0.1422,0.3296
0.6933,-0.1466,0.3335
0.6872,-0.1505,0.3371
0.6811,-0.1542,0.3411
0.6745,-0.1573,0.3435
0.6662,-0.1605,0.3459
0.6582,-0.1632,0.3496
0.6503,-0.1649,0.3538
0.6425,-0.1669,0.3584
0.6352,-0.17,0.3638
0.6291,-0.173,0.3696
0.6232,-0.1757,0.3755
0.6181,-0.1786,0.3804
0.6122,-0.1827,0.3853
0.6071,-0.1867,0.3909
0.6044,-0.1908,0.3977
0.6034,-0.1959,0.4046
0.6029,-0.2013,0.4119
0.6044,-0.2055,0.4187
0.6071,-0.2108,0.4251
0.61,-0.2169,0.4317
0.6139,-0.2238,0.4376
0.62,-0.2309,0.4429
0.6264,-0.2384,0.4488
0.6318,-0.2458,0.4551
0.6374,-0.2536,0.4613
0.6437,-0.2607,0.4654
0.6499,-0.2678,0.4698
0.6572,-0.2748,0.4735
0.6638,-0.2802,0.4747
0.6689,-0.2851,0.4759
0.674,-0.2905,0.4757
0.6801,-0.2959,0.473
0.6848,-0.2978,0.4688
0.6872,-0.2968,0.4639
0.6887,-0.2954,0.4576
0.6894,-0.2949,0.4485
0.6909,-0.2954,0.4361
0.6931,-0.2944,0.4222
0.6955,-0.29,0.409
0.6975,-0.2841,0.3958
0.699,-0.2805,0.3806
0.7016,-0.2768,0.3643
0.7058,-0.2702,0.3486
0.7126,-0.2604,0.3352
0.7207,-0.2494,0.323
0.7315,-0.2367,0.3117
0.7446,-0.2235,0.3017
0.76,-0.2086,0.2917
0.7786,-0.1935,0.2814
0.7986,-0.1771,0.269
0.8206,-0.1608,0.2543
0.8451,-0.1456,0.2387
0.8712,-0.1312,0.2216
0.8995,-0.118,0.2025
0.9293,-0.1063,0.1823
0.9609,-0.0953,0.1608
0.9946,-0.0853,0.1373
1.0295,-0.0757,0.1126
1.0654,-0.0684,0.0875
1.1021,-0.0625,0.0606
1.1397,-0.0572,0.0357
1.179,-0.0537,0.0151
1.2193,-0.0503,-0.0042
1.2616,-0.0464,-0.0239
1.3029,-0.0435,-0.043
1.3439,-0.042,-0.0603
1.3833,-0.0418,-0.0765
1.4194,-0.0423,-0.0914
1.4534,-0.0447,-0.1048
1.4864,-0.0476,-0.1182
1.5152,-0.0498,-0.1309
1.5364,-0.0555,-0.1432
1.557,-0.064,-0.1542
1.5824,-0.0733,-0.1644
1.609,-0.0826,-0.172
1.6334,-0.0926,-0.1757
1.6549,-0.1043,-0.1771
1.6735,-0.1168,-0.1771
1.6862,-0.1292,-0.1776
1.6933,-0.1412,-0.1803
1.6933,-0.1502,-0.1827
1.686,-0.1564,-0.1854
1.6718,-0.1605,-0.1869
1.652,-0.1632,-0.1854
1.6293,-0.1634,-0.1788
1.6046,-0.1615,-0.1676
1.5807,-0.1576,-0.1532
1.5575,-0.1529,-0.1351
1.5362,-0.1466,-0.1126
1.5159,-0.1378,-0.0848
1.4976,-0.1275,-0.054
1.4827,-0.1158,-0.0235
1.4715,-0.1033,0.0044
1.4639,-0.0904,0.032
1.4585,-0.0765,0.0611
1.4558,-0.0623,0.0911
1.4573,-0.0489,0.1214
1.4617,-0.0359,0.1522
1.468,-0.0217,0.1835
1.4761,-0.0073,0.2147
1.4854,0.0049,0.2458
1.4947,0.0156,0.2739
1.5042,0.0271,0.3012
1.5132,0.0379,0.3279
1.5215,0.0472,0.3533
1.534,0.0586,0.3872
1.5411,0.0647,0.4048
1.5457,0.0694,0.4205
1.5484,0.0704,0.4349
1.5496,0.0699,0.4449
1.5496,0.0687,0.4512
1.5491,0.065,0.4551
1.5482,0.0594,0.4569
1.545,0.0528,0.4551
1.5408,0.0447,0.4515
1.5347,0.0347,0.4459
1.5259,0.0237,0.4378
1.5137,0.01,0.427
1.4996,-0.0061,0.4161
1.4849,-0.0222,0.4053
1.4705,-0.0379,0.3953
1.4561,-0.053,0.3882
1.4419,-0.0667,0.3823
1.4275,-0.0796,0.3767
1.4128,-0.0916,0.3718
1.3974,-0.1036,0.3684
1.3801,-0.1141,0.3655
1.3618,-0.1236,0.363
1.3437,-0.1317,0.3616
1.3251,-0.1395,0.3608
1.3053,-0.1468,0.3601
1.2851,-0.1522,0.3586
1.2643,-0.1568,0.3577
1.2447,-0.161,0.3574
1.2262,-0.1632,0.3572
1.2091,-0.1652,0.3569
1.1922,-0.1661,0.3574
1.1758,-0.1666,0.3569
1.1612,-0.1669,0.3567
1.1478,-0.1649,0.3572
1.1368,-0.1608,0.3574
1.1277,-0.1559,0.3574
1.1204,-0.1502,0.3567
1.1143,-0.1441,0.3564
1.1096,-0.1361,0.3557
1.106,-0.1273,0.3552
1.1033,-0.118,0.3555
1.1026,-0.1075,0.3557
1.1028,-0.0982,0.356
1.105,-0.0894,0.3564
1.1087,-0.0811,0.3572
1.1131,-0.0733,0.3589
1.117,-0.0662,0.3611
1.1214,-0.0601,0.3628
1.126,-0.0545,0.3655
1.1311,-0.0503,0.3694
1.1363,-0.0472,0.3738
1.1407,-0.0454,0.3782
1.1441,-0.0452,0.3828
1.1475,-0.0454,0.3877
1.1509,-0.0462,0.3936
1.1534,-0.0476,0.3994
1.1534,-0.0491,0.4038
1.1529,-0.0511,0.407
1.1499,-0.0533,0.4087
1.1446,-0.0559,0.4095
1.1387,-0.0601,0.4087
1.1316,-0.0638,0.4063
1.1233,-0.0667,0.4021
1.1128,-0.0713,0.396
1.1006,-0.0762,0.3884
1.0886,-0.0801,0.3806
1.0757,-0.0836,0.3711
1.0618,-0.0872,0.3606
1.0473,-0.0911,0.3501
1.0334,-0.0948,0.3386
1.0188,-0.0997,0.3264
1.0046,-0.1046,0.3139
0.9899,-0.109,0.3029
0.9738,-0.1131,0.2915
0.9577,-0.1173,0.28
0.943,-0.1214,0.2692
0.9296,-0.1251,0.259
0.9147,-0.1273,0.2492
0.8988,-0.1297,0.2411
0.8807,-0.1324,0.2333
0.8631,-0.1344,0.227
0.846,-0.1349,0.2216
0.8294,-0.1346,0.2162
0.8123,-0.1341,0.2133
0.7952,-0.1322,0.2106
0.7766,-0.1292,0.2077
0.7564,-0.1258,0.2064
0.7371,-0.1217,0.2062
0.7183,-0.1175,0.206
0.699,-0.1126,0.2055
0.6806,-0.1077,0.206
0.6633,-0.1036,0.2069
0.6464,-0.0994,0.2099
0.6301,-0.0943,0.2138
0.6144,-0.088,0.2184
0.6025,-0.0796,0.2248
0.5951,-0.0716,0.2331
0.589,-0.0652,0.2419
0.5768,-0.063,0.2482
0.5626,-0.0623,0.2533
0.5512,-0.0589,0.2595
0.5385,-0.0562,0.2626
0.5253,-0.0542,0.2643
0.5155,-0.0523,0.2658
0.5084,-0.0503,0.2663
0.5045,-0.0472,0.267
0.5057,-0.0413,0.2687
0.5138,-0.0322,0.2729
0.5148,-0.0293,0.2785
0.5084,-0.0325,0.281
0.5038,-0.0359,0.2817
0.5033,-0.0369,0.2807
0.5038,-0.0359,0.2788
0.5079,-0.0322,0.2758
0.5172,-0.0281,0.2739
0.5211,-0.0308,0.2714
0.5187,-0.0349,0.27
0.5162,-0.0369,0.2692
0.5157,-0.0388,0.2673
0.517,-0.0403,0.2629
0.5189,-0.0428,0.2577
0.5238,-0.0452,0.2546
0.5306,-0.0464,0.2529
0.538,-0.0481,0.2524
0.546,-0.0501,0.2516
0.5548,-0.0518,0.2509
0.5639,-0.0528,0.2492
0.5731,-0.0533,0.2482
0.5812,-0.0547,0.248
0.5893,-0.0555,0.247
0.5983,-0.0557,0.2458
0.6064,-0.0567,0.2433
0.6135,-0.0569,0.2402
0.6205,-0.0564,0.2367
0.6257,-0.0552,0.2314
0.6281,-0.0533,0.224
0.6286,-0.0515,0.2157
0.6279,-0.0511,0.2084
0.6262,-0.0498,0.2011
0.623,-0.0481,0.194
0.6198,-0.0462,0.1884
0.6149,-0.0432,0.1832
0.6078,-0.0398,0.1779
0.6,-0.0369,0.1732
0.5924,-0.033,0.1686
0.5851,-0.0293,0.1642
0.5756,-0.0257,0.1593
0.5653,-0.0203,0.1559
0.5551,-0.0149,0.1529
0.5448,-0.0088,0.1515
0.536,-0.0022,0.1507
0.5287,0.0046,0.15
0.5228,0.012,0.1498
0.5192,0.0193,0.1495
0.5174,0.0259,0.1507
0.5155,0.0318,0.152
0.514,0.0371,0.1527
0.5133,0.0432,0.1542
0.5138,0.0493,0.1559
0.5172,0.0542,0.1605
0.5245,0.0594,0.1676
0.5326,0.065,0.1769
0.5397,0.0711,0.1867
0.5482,0.077,0.1964
0.5631,0.0858,0.2113
0.5734,0.0911,0.2213
0.5839,0.0965,0.2314
0.5949,0.1009,0.2404
0.6071,0.1051,0.2497
0.6188,0.107,0.2595
0.6306,0.1077,0.268
0.6425,0.1077,0.2744
0.6543,0.1077,0.2785
0.6665,0.1055,0.2817
0.6782,0.1024,0.2829
0.6885,0.0994,0.2824
0.6985,0.0965,0.2797
0.7087,0.0928,0.2763
0.7192,0.0889,0.2736
0.7297,0.0845,0.2714
0.7398,0.0794,0.2712
0.7498,0.0735,0.2719
0.76,0.0677,0.2731
0.7705,0.0623,0.2744
0.7806,0.0567,0.278
0.7911,0.0506,0.2827
0.8021,0.0452,0.2878
0.8148,0.0403,0.2934
0.827,0.0357,0.3
0.8394,0.0303,0.3073
0.8524,0.0254,0.3149
0.8663,0.021,0.3227
0.8805,0.0166,0.3301
0.8939,0.012,0.3369
0.9078,0.0073,0.3442
0.9205,0.0034,0.352
0.933,0.001,0.3591
0.9452,-0.0012,0.3657
0.9567,-0.0022,0.3713
0.9672,-0.0017,0.3762
0.9762,-0.0005,0.3804
0.9848,0.0005,0.3838
0.9912,0.001,0.385
0.9958,0.002,0.3858
1.0009,0.0029,0.3858
1.0041,0.0037,0.3843
1.0056,0.0046,0.3814
1.0043,0.0056,0.3765
1.0021,0.0042,0.3713
0.9999,-0.0007,0.3655
0.9958,-0.0073,0.3594
0.9897,-0.0169,0.353
0.9814,-0.0266,0.3447
0.9701,-0.0349,0.3357
0.9577,-0.0423,0.3301
0.9452,-0.0501,0.3276
0.9352,-0.0599,0.3264
0.9254,-0.0716,0.323
0.9144,-0.0831,0.3178
0.9044,-0.0938,0.3088
0.8971,-0.1024,0.2985
0.8949,-0.1102,0.2883
0.8986,-0.118,0.2802
0.9071,-0.1256,0.2734
0.9196,-0.1317,0.2663
0.9369,-0.1366,0.2595
0.9582,-0.1417,0.2538
0.9836,-0.1456,0.2494
1.0114,-0.1488,0.2458
1.0412,-0.1524,0.2438
1.074,-0.1546,0.2436
1.1084,-0.1554,0.2438
1.1429,-0.1556,0.2431
1.1773,-0.1556,0.2433
1.2115,-0.1551,0.2433
1.2445,-0.1534,0.2411
1.276,-0.1524,0.236
1.3058,-0.1524,0.2262
1.3344,-0.1532,0.2121
1.362,-0.1539,0.1957
1.3884,-0.1549,0.1766
1.4128,-0.1556,0.1534
1.4368,-0.1573,0.1268
1.46,-0.16,0.0994
1.4822,-0.1637,0.0713
1.503,-0.1686,0.0442
1.5223,-0.1744,0.0173
1.5413,-0.181,-0.009
1.5606,-0.1879,-0.0322
1.5792,-0.1952,-0.0533
1.5968,-0.202,-0.0706
1.6114,-0.2096,-0.0838
1.6237,-0.2167,-0.0928
1.6342,-0.2221,-0.0963
1.6417,-0.227,-0.0941
1.6447,-0.2294,-0.0875
1.6432,-0.2309,-0.0757
1.6371,-0.2318,-0.0596
1.6263,-0.2306,-0.0408
1.6119,-0.2289,-0.0183
1.5946,-0.2272,0.0068
1.5765,-0.2257,0.0359
1.5589,-0.2255,0.0687
1.5411,-0.2257,0.1036
1.5245,-0.226,0.1395
1.5083,-0.2272,0.1749
1.4912,-0.2296,0.2108
1.4751,-0.2328,0.2463
1.461,-0.237,0.2807
1.447,-0.2424,0.312
1.4331,-0.2475,0.3408
1.4202,-0.2521,0.3672
1.4079,-0.2582,0.3889
1.3967,-0.2641,0.4077
1.3872,-0.2685,0.4231
1.3781,-0.2736,0.4349
1.3701,-0.2783,0.4427
1.3623,-0.2822,0.4476
1.3552,-0.2853,0.4495
1.3493,-0.289,0.4483
1.3427,-0.2932,0.4446
1.3356,-0.2966,0.4393
1.3271,-0.2985,0.4332
1.3161,-0.2985,0.427
1.3029,-0.2983,0.4187
1.2882,-0.2976,0.4102
1.2721,-0.2954,0.4029
1.2535,-0.2917,0.3968
1.233,-0.2871,0.3916
1.2108,-0.2822,0.3889
1.1888,-0.2775,0.388
1.1661,-0.2724,0.3882
1.1438,-0.2665,0.3894
1.1226,-0.259,0.3928
1.1021,-0.2504,0.3965
1.082,-0.2419,0.3992
1.0622,-0.2331,0.4002
1.0437,-0.2228,0.4002
1.0271,-0.2135,0.3985
1.0109,-0.2047,0.3968
0.9973,-0.1969,0.3958
0.9872,-0.1893,0.3948
0.9799,-0.1815,0.3933
0.9748,-0.1742,0.3916
0.9716,-0.1666,0.3897
0.9711,-0.1581,0.3882
0.9736,-0.1488,0.3855
0.9789,-0.14,0.3823
0.9858,-0.1307,0.3787
0.9943,-0.1202,0.3745
1.0036,-0.1094,0.3704
1.0134,-0.0989,0.3662
1.0251,-0.0887,0.3611
1.0361,-0.0789,0.3547
1.0481,-0.0694,0.3481
1.0605,-0.0606,0.3418
1.072,-0.0523,0.3345
1.083,-0.0437,0.3271
1.0935,-0.0359,0.3203
1.1038,-0.0296,0.3125
1.1148,-0.0237,0.3037
1.1263,-0.0195,0.2956
1.1387,-0.0169,0.2871
1.1502,-0.0151,0.2773
1.1614,-0.0151,0.2685
1.1724,-0.0156,0.2619
1.1824,-0.0164,0.256
1.191,-0.0173,0.2509
1.1973,-0.0176,0.2463
1.2025,-0.0183,0.2419
1.2071,-0.0203,0.2365
1.2081,-0.0217,0.2331
1.2079,-0.0239,0.2289
1.2049,-0.0269,0.2243
1.2008,-0.0291,0.2189
1.1937,-0.031,0.214
1.1864,-0.0335,0.2081
1.1795,-0.0364,0.2033
1.171,-0.0396,0.2006
1.1619,-0.0425,0.1972
1.1517,-0.0467,0.1935
1.1404,-0.0515,0.1898
1.1285,-0.0562,0.1876
1.116,-0.0611,0.1864
1.1021,-0.0674,0.1859
1.0872,-0.0723,0.1867
1.0727,-0.0767,0.1888
1.0588,-0.0811,0.1913
1.0454,-0.085,0.195
1.0319,-0.0892,0.1998
1.0178,-0.0926,0.204
1.0024,-0.0955,0.2084
0.9877,-0.0982,0.2125
0.9745,-0.1019,0.2177
0.9613,-0.1055,0.2228
0.9467,-0.1087,0.2272
0.9325,-0.1116,0.2306
0.9191,-0.1151,0.2336
0.9049,-0.118,0.2365
0.8895,-0.1212,0.2384
0.8746,-0.1244,0.2389
0.859,-0.1275,0.2392
0.8443,-0.1307,0.2387
0.8302,-0.1346,0.2377
0.816,-0.1388,0.2355
0.8008,-0.1429,0.2316
0.7857,-0.1468,0.226
0.7708,-0.1515,0.2213
0.7564,-0.1559,0.2174
0.7429,-0.161,0.2133
0.7293,-0.1659,0.2069
0.7146,-0.1703,0.2001
0.7012,-0.1747,0.1937
0.6897,-0.1788,0.1886
0.6784,-0.1827,0.1832
0.666,-0.1864,0.1779
0.6552,-0.1903,0.1744
0.6472,-0.1959,0.1691
0.6423,-0.203,0.1622
0.6342,-0.2074,0.1576
0.6227,-0.2079,0.1564
0.6115,-0.2072,0.1556
0.6022,-0.2069,0.1542
0.5949,-0.2072,0.1515
0.5888,-0.2064,0.149
0.5844,-0.2055,0.15
0.5824,-0.2052,0.1524
0.5822,-0.205,0.1539
0.5822,-0.2038,0.1551
0.5817,-0.2025,0.1564
0.5827,-0.2013,0.1568
0.5846,-0.1984,0.1566
0.5873,-0.1952,0.1578
0.5922,-0.1928,0.1608
0.599,-0.1891,0.1632
0.6073,-0.1845,0.1647
0.6179,-0.1803,0.1664
0.6288,-0.1764,0.1681
0.6406,-0.1715,0.1691
0.6535,-0.1656,0.1695
0.667,-0.1598,0.1695
0.6804,-0.1542,0.1686
0.6916,-0.1483,0.1678
0.7012,-0.1415,0.1661
0.7097,-0.1336,0.1632
0.718,-0.1256,0.161
0.7256,-0.1175,0.159
0.7322,-0.1097,0.1566
0.7376,-0.1026,0.1534
0.742,-0.0953,0.1505
0.7444,-0.0882,0.1468
0.7451,-0.0809,0.1437
0.7461,-0.0726,0.1424
0.7476,-0.0625,0.1429
0.7478,-0.054,0.1427
0.7473,-0.0474,0.1419
0.7456,-0.0418,0.1412
0.7437,-0.0354,0.1395
0.7398,-0.0296,0.139
0.7341,-0.0249,0.1412
0.728,-0.0205,0.1444
0.7217,-0.0166,0.1485
0.7146,-0.0134,0.1532
0.7056,-0.011,0.1586
0.6963,-0.0095,0.1647
0.687,-0.0086,0.1713
0.6755,-0.0081,0.1796
0.663,-0.0083,0.1881
0.6503,-0.009,0.1967
0.6367,-0.0095,0.206
0.622,-0.0103,0.2155
0.6083,-0.0115,0.225
0.5937,-0.0149,0.2343
0.5785,-0.0183,0.2426
0.5629,-0.022,0.2499
0.547,-0.0259,0.256
0.5309,-0.0315,0.2619
0.5155,-0.0379,0.2673
0.5013,-0.0454,0.2717
0.4891,-0.0557,0.2736
0.4759,-0.0652,0.2734
0.4622,-0.0733,0.2731
0.4515,-0.0814,0.2707
0.4424,-0.0894,0.266
0.4363,-0.0985,0.2604
0.4351,-0.1077,0.2553
0.4312,-0.1146,0.2519
0.4248,-0.1202,0.2526
0.4214,-0.1253,0.2553
0.4205,-0.1309,0.258
0.4251,-0.1371,0.2602
0.4349,-0.1439,0.2621
0.4493,-0.152,0.2634
0.4681,-0.1593,0.2663
0.4896,-0.1671,0.2697
0.5126,-0.1739,0.2741
0.536,-0.1803,0.2795
0.5604,-0.1869,0.2839
0.5851,-0.193,0.2888
0.61,-0.1976,0.2944
0.6357,-0.2023,0.3003
0.6613,-0.2072,0.3061
0.6872,-0.2113,0.3125
0.7126,-0.2157,0.3181
0.7378,-0.2199,0.3242
0.7632,-0.2228,0.3308
0.7879,-0.225,0.3374
0.8106,-0.2277,0.3445
0.8338,-0.2299,0.3518
0.8556,-0.2311,0.3577
0.8746,-0.2321,0.3628
0.8922,-0.2318,0.3677
0.9081,-0.2314,0.3723
0.9223,-0.2294,0.3765
0.9335,-0.2272,0.3814
0.9433,-0.2245,0.3853
0.9511,-0.2199,0.3858
0.9562,-0.2152,0.3855
0.9584,-0.2106,0.3836
0.9587,-0.205,0.3804
0.9572,-0.1989,0.3775
0.9543,-0.1913,0.3748
0.9508,-0.1837,0.3706
0.9455,-0.1757,0.3669
0.9386,-0.1678,0.3633
0.9306,-0.1608,0.3606
0.9223,-0.1537,0.3594
0.9142,-0.1478,0.3606
0.9054,-0.1419,0.3621
0.8968,-0.1371,0.3647
0.8881,-0.1346,0.3679
0.8797,-0.1322,0.3716
0.8724,-0.1285,0.375
0.8656,-0.1244,0.3779
0.8587,-0.1224,0.3806
0.8546,-0.1236,0.3831
0.8534,-0.1263,0.3848
0.8546,-0.1295,0.3848
0.8578,-0.1366,0.3848
0.8614,-0.141,0.3865
0.868,-0.1456,0.388
0.8771,-0.1505,0.3904
0.8873,-0.1551,0.3919
0.9003,-0.1598,0.3946
0.9152,-0.1644,0.398
0.9303,-0.1678,0.4004
0.9464,-0.1693,0.4007
0.9611,-0.1708,0.3994
0.9765,-0.173,0.3963
0.9943,-0.1747,0.3892
1.0136,-0.1771,0.3799
1.0339,-0.1801,0.3682
1.0542,-0.1842,0.353
1.0732,-0.1881,0.3342
1.0913,-0.1923,0.3127
1.1084,-0.1972,0.2888
1.1258,-0.2023,0.2631
1.1438,-0.2074,0.2367
1.1624,-0.2123,0.2099
1.1802,-0.2167,0.1823
1.1986,-0.2211,0.1546
1.2166,-0.225,0.1273
1.233,-0.2284,0.1014
1.2474,-0.2301,0.075
1.2616,-0.2321,0.0481
1.2741,-0.2333,0.0215
1.2838,-0.2331,-0.0056
1.2938,-0.2333,-0.0315
1.3029,-0.2355,-0.0564
1.3109,-0.2384,-0.0816
1.3183,-0.2411,-0.1053
1.3263,-0.2438,-0.1275
1.3366,-0.246,-0.148
1.3478,-0.2472,-0.1664
1.3593,-0.2475,-0.184
1.3713,-0.2475,-0.2008
1.3835,-0.2477,-0.2152
1.3974,-0.2475,-0.2279
1.4118,-0.245,-0.2384
1.4248,-0.2406,-0.2467
1.4373,-0.2345,-0.2526
1.4504,-0.2274,-0.2555
1.4634,-0.2187,-0.256
1.4744,-0.2074,-0.2538
1.4846,-0.194,-0.2509
1.493,-0.1796,-0.2463
1.5013,-0.1615,-0.238
1.5137,-0.1393,-0.2265
1.5284,-0.1163,-0.2108
1.5413,-0.0943,-0.1915
1.5501,-0.0738,-0.1691
1.5496,-0.0567,-0.1456
1.5513,-0.0281,-0.1158
1.5643,0.0024,-0.0779
1.5792,0.0237,-0.0406
1.5904,0.0386,-0.0056
1.5936,0.053,0.0286
1.5899,0.0684,0.0621
1.5829,0.0838,0.096
1.5719,0.0997,0.1307
1.5572,0.1151,0.1664
1.5416,0.1305,0.2025
1.5264,0.1468,0.2365
1.5145,0.1627,0.2685
1.5066,0.1761,0.2988
1.5015,0.1864,0.3271
1.4983,0.1932,0.3538
1.4974,0.1986,0.3792
1.4988,0.2045,0.4009
1.5003,0.2086,0.4192
1.501,0.2101,0.4336
1.5015,0.2086,0.4427
1.5025,0.2042,0.4454
1.5018,0.1954,0.4415
1.4991,0.1803,0.4312
1.4937,0.1595,0.4129
1.4842,0.1334,0.3884
1.4717,0.1016,0.3601
1.4575,0.0613,0.3335
1.4407,0.0129,0.3108
1.4241,-0.0398,0.2934
1.4079,-0.0909,0.2844
1.3918,-0.1351,0.2839
1.3759,-0.1732,0.29
1.3615,-0.2074,0.3012
1.3491,-0.238,0.3164
1.3378,-0.2641,0.3349
1.3261,-0.2861,0.355
1.3134,-0.3049,0.3765
1.3019,-0.3198,0.397
1.2919,-0.3318,0.4163
1.2826,-0.3406,0.4341
1.2731,-0.3469,0.4485
1.2643,-0.3506,0.4586
1.257,-0.3518,0.4625
1.2499,-0.3523,0.4608
1.2443,-0.3518,0.4542
1.2399,-0.3506,0.4429
1.2369,-0.3476,0.4266
1.2333,-0.3425,0.4073
1.2281,-0.3374,0.386
1.2232,-0.3305,0.3643
1.2179,-0.322,0.3425
1.211,-0.312,0.3188
1.203,-0.3012,0.2954
1.1947,-0.2883,0.2744
1.1861,-0.2739,0.2565
1.1768,-0.2577,0.2406
1.1671,-0.2419,0.2277
1.1587,-0.2257,0.2191
1.1497,-0.2103,0.214
1.1412,-0.1957,0.2128
1.1336,-0.1801,0.2162
1.1265,-0.1644,0.2233
1.1187,-0.1488,0.2321
1.1116,-0.1344,0.2426
1.1043,-0.1204,0.2541
1.0967,-0.1075,0.266
1.0884,-0.095,0.2795
1.0786,-0.0836,0.2941
1.0679,-0.0728,0.3086
1.0561,-0.063,0.323
1.0432,-0.0545,0.3367
1.03,-0.0469,0.3484
1.0151,-0.0408,0.3579
0.9987,-0.0359,0.3657
0.9821,-0.0308,0.3713
0.965,-0.0264,0.3753
0.9464,-0.023,0.3772
0.9276,-0.02,0.3777
0.9086,-0.0186,0.377
0.889,-0.0181,0.3745
0.8685,-0.0176,0.3709
0.8485,-0.0181,0.366
0.8292,-0.0186,0.3604
0.8104,-0.0183,0.3555
0.7911,-0.0169,0.3479
0.7703,-0.0161,0.3393
0.7503,-0.0171,0.3318
0.7307,-0.0173,0.3257
0.7104,-0.0169,0.3171
0.6907,-0.0159,0.3088
0.6706,-0.0149,0.3005
0.6503,-0.0151,0.2924
0.6301,-0.0154,0.2853
0.6098,-0.0159,0.278
0.591,-0.0178,0.2707
0.5739,-0.0188,0.2643
0.5575,-0.0181,0.2597
0.5404,-0.0188,0.2568
0.5233,-0.0208,0.2538
0.5064,-0.0225,0.2511
0.4911,-0.0237,0.2507
0.4798,-0.0191,0.2526
0.4762,-0.0151,0.2565
0.4634,-0.0181,0.2558
0.4478,-0.0237,0.2536
0.4332,-0.0296,0.2516
0.4192,-0.033,0.2494
0.4065,-0.0362,0.2475
0.3955,-0.0406,0.246
0.386,-0.0432,0.2436
0.3779,-0.0467,0.2421
0.3709,-0.0501,0.2419
0.3652,-0.0552,0.2431
0.3599,-0.0608,0.2448
0.3569,-0.0652,0.2475
0.3577,-0.0679,0.2504
0.3628,-0.0696,0.2548
0.3709,-0.0696,0.2597
0.3821,-0.0689,0.2646
0.397,-0.0669,0.2695
0.4146,-0.065,0.2753
0.4358,-0.0638,0.2797
0.4591,-0.0618,0.2822
0.4847,-0.0591,0.2846
0.5123,-0.0559,0.2878
0.5394,-0.0525,0.2895
0.5665,-0.0506,0.289
0.5942,-0.0484,0.2875
0.621,-0.0457,0.2839
0.6472,-0.0432,0.279
0.6733,-0.041,0.2736
0.6977,-0.0391,0.2673
0.7214,-0.0364,0.2602
0.7454,-0.033,0.2533
0.7679,-0.0303,0.246
0.7869,-0.0281,0.2397
0.803,-0.0257,0.2336
0.8194,-0.0227,0.2272
0.8338,-0.0193,0.2209
0.846,-0.0164,0.215
0.8563,-0.0142,0.2094
0.8648,-0.012,0.204
0.8707,-0.0105,0.1984
0.8741,-0.0088,0.1923
0.8761,-0.0064,0.1869
0.8758,-0.0042,0.1825
0.8722,-0.0024,0.1783
0.8658,-0.0015,0.1739
0.8587,-0.0005,0.1703
0.8497,0.0012,0.1676
0.8385,0.0032,0.1669
0.8267,0.0059,0.1669
0.814,0.0093,0.1671
0.7999,0.0132,0.1683
0.7859,0.0159,0.1695
0.7732,0.0178,0.1703
0.762,0.0208,0.1717
0.7508,0.0237,0.1744
0.7402,0.0261,0.1786
0.731,0.0296,0.1832
0.7234,0.0322,0.1888
0.7166,0.034,0.195
0.7112,0.0364,0.2008
0.706,0.0393,0.206
0.7029,0.0415,0.2113
0.7024,0.0435,0.2194
0.7026,0.0442,0.2287
0.7029,0.0447,0.2375
0.7048,0.0442,0.248
0.7092,0.0435,0.2597
0.7139,0.0428,0.2709
0.7183,0.0423,0.2822
0.7236,0.041,0.2951
0.731,0.0398,0.3081
0.7383,0.0381,0.3213
0.7456,0.0362,0.3345
0.753,0.0344,0.3469
0.7603,0.0315,0.3584
0.7681,0.0269,0.3694
0.7752,0.0225,0.3794
0.782,0.0186,0.3872
0.7876,0.0151,0.3931
0.7916,0.011,0.397
0.7938,0.0081,0.3975
0.794,0.0046,0.3958
0.7928,0.001,0.3919
0.7901,-0.0034,0.3855
0.7854,-0.0083,0.377
0.7798,-0.0112,0.3657
0.7723,-0.0139,0.3535
0.7632,-0.0166,0.3423
0.752,-0.0183,0.3327
0.7405,-0.0205,0.3237
0.7288,-0.0235,0.3142
0.7158,-0.0257,0.3068
0.7021,-0.0281,0.3027
0.6875,-0.0298,0.3
0.6733,-0.031,0.2981
0.6606,-0.0327,0.2976
0.6486,-0.0342,0.2998
0.6372,-0.0354,0.3049
0.6266,-0.0369,0.313
0.6191,-0.0391,0.323
0.6144,-0.0418,0.334
0.6122,-0.0459,0.3467
0.6122,-0.0511,0.3621
0.6157,-0.0542,0.3787
0.6227,-0.0547,0.397
0.6332,-0.054,0.4158
0.6474,-0.0525,0.4341
0.6667,-0.0506,0.449
0.6892,-0.0489,0.4598
0.7161,-0.0481,0.4669
0.7468,-0.0491,0.47
0.7818,-0.0508,0.4696
0.8196,-0.053,0.4674
0.858,-0.0559,0.4637
0.8973,-0.0577,0.46
0.9364,-0.0591,0.4561
0.9762,-0.0613,0.452
1.0173,-0.0647,0.4461
1.0561,-0.0691,0.4376
1.094,-0.075,0.4266
1.1311,-0.0816,0.4124
1.1661,-0.0875,0.3946
1.1973,-0.0928,0.3728
1.2257,-0.0987,0.3457
1.2504,-0.1053,0.3122
1.2726,-0.1141,0.2746
1.2926,-0.1236,0.2345
1.3095,-0.1329,0.1898
1.3219,-0.1434,0.1415
1.3295,-0.1532,0.0901
1.3346,-0.1627,0.0396
1.3388,-0.173,-0.0105
1.3405,-0.1827,-0.0584
1.3395,-0.1908,-0.1053
1.3366,-0.1984,-0.1505
1.3312,-0.2045,-0.1903
1.3246,-0.2079,-0.2235
1.32,-0.2099,-0.2514
1.319,-0.2096,-0.2741
1.3205,-0.2064,-0.2924
1.3234,-0.2018,-0.3042
1.328,-0.1952,-0.3093
1.3361,-0.1867,-0.3078
1.3466,-0.1744,-0.3005
1.3576,-0.1586,-0.2871
1.3703,-0.1402,-0.2665
1.383,-0.119,-0.2384
1.3945,-0.0977,-0.2035
1.4048,-0.0762,-0.1642
1.4155,-0.0537,-0.1209
1.426,-0.0308,-0.0748
1.4363,-0.0095,-0.0264
1.4448,0.01,0.023
1.4504,0.0279,0.0723
1.4546,0.0435,0.1207
1.458,0.0552,0.1652
1.4595,0.0657,0.2047
1.4592,0.0743,0.2384
1.4551,0.0789,0.2673
1.4456,0.0799,0.2907
1.4329,0.0767,0.3088
1.4172,0.0706,0.321
1.4009,0.0628,0.3261
1.384,0.0535,0.3257
1.3669,0.0425,0.32
1.3493,0.0308,0.3112
1.3332,0.0171,0.3029
1.3207,0.0022,0.2971
1.3119,-0.0139,0.2912
1.3058,-0.0305,0.2839
1.3022,-0.0491,0.2773
1.2997,-0.0708,0.2719
1.3,-0.1068,0.2673
1.3019,-0.1319,0.2665
1.3044,-0.1588,0.2678
1.3075,-0.1881,0.2714
1.3102,-0.2199,0.2775
1.3102,-0.2516,0.2829
1.307,-0.2819,0.2875
1.3017,-0.311,0.2937
1.2956,-0.3374,0.2988
1.2887,-0.3577,0.3044
1.2831,-0.3735,0.311
1.2787,-0.3836,0.3186
1.275,-0.3877,0.3259
1.2741,-0.3875,0.3315
1.275,-0.3836,0.3347
1.2765,-0.3765,0.3359
1.2797,-0.3677,0.3347
1.2838,-0.3584,0.3337
1.2892,-0.3494,0.3337
1.2963,-0.3393,0.3345
1.3036,-0.3296,0.3357
1.3117,-0.32,0.3357
1.3193,-0.3103,0.3347
1.3261,-0.3003,0.3349
1.3315,-0.2902,0.3369
1.3344,-0.281,0.3398
1.3332,-0.2719,0.342
1.3288,-0.2626,0.3442
1.3207,-0.2536,0.345
1.309,-0.2448,0.345
1.2943,-0.236,0.345
1.2789,-0.2282,0.3459
1.2616,-0.2206,0.3498
1.2423,-0.2138,0.3542
1.2218,-0.2077,0.3608
1.2015,-0.2025,0.3667
1.1807,-0.1981,0.3728
1.1609,-0.1937,0.3779
1.1416,-0.1898,0.3838
1.1226,-0.1867,0.3906
1.1038,-0.1847,0.3982
1.0867,-0.183,0.4063
1.072,-0.181,0.4148
1.0576,-0.1788,0.4236
1.0449,-0.1771,0.4319
1.0349,-0.1752,0.4388
1.0263,-0.1737,0.4439
1.0183,-0.1732,0.4478
1.0107,-0.1735,0.4522
1.0041,-0.1735,0.4549
0.9995,-0.1727,0.4559
0.9965,-0.1722,0.4559
0.9933,-0.1717,0.4554
0.989,-0.1717,0.4529
0.9863,-0.172,0.4468
0.9833,-0.172,0.4407
0.9799,-0.1708,0.4339
0.9765,-0.1691,0.4246
0.9714,-0.1676,0.4143
0.965,-0.1654,0.4041
0.9584,-0.1625,0.3936
0.9508,-0.1583,0.3826
0.942,-0.1542,0.3713
0.932,-0.1498,0.3596
0.9203,-0.1454,0.3472
0.9069,-0.1407,0.3359
0.8932,-0.1358,0.3257
0.8797,-0.1307,0.3149
0.8651,-0.1253,0.3046
0.8495,-0.1192,0.2946
0.8328,-0.1129,0.2844
0.8157,-0.106,0.2739
0.7981,-0.0987,0.2648
0.7808,-0.0919,0.2563
0.7627,-0.0855,0.2487
0.7439,-0.0777,0.2409
0.7271,-0.0699,0.2328
0.7102,-0.0621,0.226
0.6926,-0.0545,0.2189
0.6758,-0.0476,0.2135
0.6616,-0.0403,0.2089
0.6474,-0.0327,0.204
0.6318,-0.0261,0.1984
0.6186,-0.0198,0.1925
0.6081,-0.0139,0.1881
0.601,-0.011,0.1832
0.5949,-0.0068,0.1779
0.5878,-0.0002,0.1749
0.5819,0.0059,0.1744
0.5785,0.0112,0.1739
0.5766,0.0154,0.172
0.5768,0.0188,0.1698
0.579,0.0205,0.1669
0.5824,0.0203,0.1637
0.5868,0.0151,0.1593
0.5934,0.0122,0.1556
0.6017,0.0154,0.1559
0.6098,0.0198,0.1566
0.6179,0.0205,0.1571
0.6254,0.0191,0.1568
0.6335,0.0203,0.1564
0.6413,0.0222,0.1571
0.6467,0.0235,0.1581
0.6513,0.0239,0.1568
0.6562,0.0257,0.1542
0.6611,0.0271,0.1527
0.6645,0.0291,0.1524
0.6667,0.0318,0.1539
0.667,0.0332,0.1554
0.6662,0.0337,0.1561
0.6648,0.0315,0.1583
0.6611,0.0279,0.1608
0.6547,0.0222,0.1649
0.6481,0.0171,0.171
0.6406,0.0115,0.1771
0.6313,0.0037,0.1835
0.622,-0.0049,0.1898
0.6139,-0.0144,0.1984
0.6073,-0.0261,0.2086
0.6,-0.0371,0.2209
0.5905,-0.0462,0.2353
0.5814,-0.0547,0.2504
0.5729,-0.0652,0.2663
0.5653,-0.0787,0.2817
0.5575,-0.0923,0.2963
0.5502,-0.1077,0.3093
0.5433,-0.1236,0.323
0.5375,-0.1395,0.3371
0.5323,-0.1556,0.3506
0.5275,-0.1705,0.3623
0.5226,-0.1845,0.3743
0.5182,-0.1986,0.3858
0.514,-0.2135,0.3965
0.5086,-0.2274,0.4055
0.503,-0.2406,0.4139
0.4984,-0.2531,0.4192
0.4974,-0.2634,0.4219
0.502,-0.2734,0.4229
0.5099,-0.2819,0.4253
0.5162,-0.2912,0.427
0.5152,-0.2995,0.4253
0.5116,-0.3064,0.4234
0.5084,-0.3122,0.4234
0.5069,-0.3169,0.4217
0.505,-0.3218,0.4185
0.5008,-0.3244,0.4146
0.4967,-0.3266,0.4107
0.4942,-0.3281,0.4077
0.4942,-0.3293,0.4065
0.4945,-0.3293,0.4046
0.4945,-0.3281,0.4033
0.4959,-0.3261,0.4051
0.4981,-0.3237,0.4087
0.5016,-0.3218,0.4134
0.5079,-0.32,0.4197
0.5162,-0.3164,0.4263
0.5275,-0.3115,0.4341
0.5419,-0.3068,0.4415
0.5575,-0.3022,0.4463
0.5744,-0.2968,0.4498
0.5934,-0.289,0.4532
0.6139,-0.28,0.4569
0.6364,-0.269,0.46
0.6621,-0.258,0.4627
0.6899,-0.2472,0.4639
0.7185,-0.2365,0.462
0.7461,-0.2255,0.4595
0.7715,-0.2147,0.4569
0.793,-0.2035,0.4539
0.8096,-0.1913,0.4507
0.8231,-0.1788,0.4473
0.8341,-0.1691,0.4424
0.8407,-0.1578,0.438
0.8446,-0.1429,0.4358
0.8504,-0.1297,0.4354
0.8524,-0.1168,0.4322
0.846,-0.097,0.4256
0.8355,-0.0757,0.4153
0.8236,-0.0569,0.4024
0.8131,-0.0423,0.3865
0.7977,-0.0225,0.3557
0.7869,-0.0098,0.3293
0.7764,0.001,0.3007
0.7647,0.0093,0.2722
0.7561,0.0151,0.2465
0.75,0.0183,0.2238
0.7454,0.0208,0.2052
0.7417,0.0225,0.1891
0.7383,0.0235,0.1754
0.7361,0.0239,0.1656
0.738,0.0232,0.1586
0.7468,0.0173,0.1524
0.7627,0.0059,0.1456
0.7862,-0.0122,0.1375
0.8155,-0.0335,0.128
0.849,-0.0564,0.1182
0.8844,-0.0801,0.1085
0.9208,-0.1051,0.0997
0.9596,-0.1307,0.0916
1.0004,-0.1566,0.086
1.0439,-0.182,0.0831
1.0879,-0.2055,0.0809
1.1328,-0.2284,0.0774
1.1795,-0.2499,0.0735
1.2254,-0.2702,0.0706
1.2704,-0.2878,0.0669
1.3129,-0.2993,0.0633
1.3552,-0.3039,0.0643
1.4001,-0.3095,0.0687
1.4451,-0.3181,0.0701
1.4861,-0.3266,0.0645
1.5237,-0.3327,0.0528
1.5577,-0.3369,0.0374
1.587,-0.3396,0.0198
1.6122,-0.3413,-0.0005
1.6339,-0.342,-0.0225
1.6508,-0.3413,-0.0489
1.6637,-0.3376,-0.0784
1.6737,-0.3318,-0.1082
1.6823,-0.322,-0.1358
1.6906,-0.311,-0.1615
1.6972,-0.2981,-0.1874
1.6987,-0.2822,-0.2138
1.7018,-0.2643,-0.2331
1.7111,-0.2458,-0.2419
1.7253,-0.226,-0.2426
1.7387,-0.206,-0.2377
1.748,-0.1842,-0.2306
1.7549,-0.1588,-0.2204
1.7588,-0.1322,-0.2069
1.7563,-0.1075,-0.1898
1.7556,-0.0779,-0.1642
1.7605,-0.0457,-0.1312
1.7702,-0.0105,-0.0926
1.7803,0.0225,-0.0513
1.7942,0.0567,-0.0059
1.8152,0.0894,0.0435
1.835,0.1178,0.0953
1.8518,0.14,0.1478
1.8697,0.1632,0.2025
1.8936,0.1898,0.2607
1.9163,0.2128,0.3193
1.9344,0.2306,0.3757
1.9464,0.2441,0.4285
1.9508,0.2565,0.4752
1.9481,0.2673,0.514
1.9369,0.2736,0.5416
1.9171,0.2741,0.556
1.887,0.267,0.556
1.8457,0.2514,0.5426
1.7949,0.2274,0.5162
1.739,0.1954,0.4825
1.6825,0.159,0.4485
1.6278,0.1214,0.4207
1.5768,0.0831,0.3999
1.5301,0.0452,0.3858
1.4888,0.01,0.3789
1.4526,-0.0222,0.3789
1.4219,-0.0503,0.386
1.3935,-0.076,0.3968
1.3676,-0.0999,0.4104
1.3452,-0.1204,0.4258
1.3229,-0.1375,0.442
1.2985,-0.1532,0.4561
1.2723,-0.1664,0.4664
1.2438,-0.1786,0.4747
1.2127,-0.1898,0.4825
1.1798,-0.1994,0.4869
1.1465,-0.2064,0.4898
1.1143,-0.2121,0.4901
1.0835,-0.215,0.4859
1.0544,-0.2169,0.4779
1.0271,-0.2187,0.4683
1.0017,-0.2213,0.4593
0.9765,-0.2231,0.451
0.9506,-0.2228,0.4444
0.9252,-0.2235,0.439
0.9003,-0.2238,0.4346
0.8766,-0.2228,0.4317
0.8524,-0.2206,0.4312
0.8287,-0.2184,0.4322
0.806,-0.2155,0.4346
0.7854,-0.2116,0.4368
0.7666,-0.2077,0.4402
0.7498,-0.2038,0.4456
0.7344,-0.1996,0.4525
0.7197,-0.1959,0.461
0.706,-0.1913,0.4698
0.6929,-0.1874,0.481
0.6806,-0.1837,0.4935
0.6692,-0.1781,0.5057
0.6601,-0.171,0.517
0.6516,-0.1652,0.5277
0.6455,-0.1588,0.5389
0.6413,-0.1522,0.5494
0.6379,-0.1449,0.5585
0.6354,-0.1385,0.5653
0.6337,-0.1322,0.569
0.6335,-0.1256,0.5722
0.6359,-0.119,0.5724
0.6396,-0.1131,0.5697
0.643,-0.106,0.5646
0.6474,-0.0987,0.5582
0.6545,-0.0914,0.5519
0.6633,-0.0833,0.5438
0.674,-0.076,0.5341
0.6848,-0.0677,0.5238
0.6965,-0.0591,0.5123
0.709,-0.0506,0.4996
0.7209,-0.0425,0.4876
0.7334,-0.0349,0.4759
0.7461,-0.0276,0.4644
0.7576,-0.021,0.4522
0.7688,-0.0154,0.441
0.7788,-0.009,0.4295
0.7874,-0.0032,0.4185
0.7967,0.0027,0.4085
0.8045,0.0083,0.4004
0.8101,0.0125,0.3943
0.8165,0.0159,0.3882
0.8218,0.0188,0.3821
0.825,0.0213,0.3777
0.8262,0.0222,0.374
0.8272,0.0227,0.3701
0.827,0.023,0.3655
0.825,0.0222,0.3613
0.8221,0.0208,0.3577
0.8174,0.0181,0.3533
0.8123,0.0144,0.3494
0.8069,0.0103,0.3467
0.7999,0.0061,0.3445
0.7928,0.0012,0.3411
0.7862,-0.0042,0.3376
0.7788,-0.0098,0.3352
0.7713,-0.0161,0.3315
0.7632,-0.0227,0.3283
0.7542,-0.0305,0.3254
0.7456,-0.0374,0.3232
0.7371,-0.0428,0.3213
0.7285,-0.0496,0.3196
0.7197,-0.0567,0.3176
0.7114,-0.0633,0.3154
0.7038,-0.0694,0.3137
0.6963,-0.0748,0.313
0.685,-0.0809,0.3137
0.6784,-0.084,0.3152
0.6731,-0.0875,0.3166
0.6682,-0.0909,0.3183
0.665,-0.0936,0.321
0.6626,-0.0948,0.3244
0.6606,-0.0963,0.3269
0.6599,-0.0965,0.3286
0.6604,-0.0965,0.3301
0.6613,-0.0958,0.3318
0.6643,-0.095,0.3332
0.6687,-0.0936,0.3345
0.6748,-0.0916,0.3352
0.6816,-0.0887,0.3352
0.6897,-0.0845,0.3354
0.6992,-0.0806,0.3359
0.708,-0.076,0.3364
0.7173,-0.0701,0.3364
0.7249,-0.0643,0.3352
0.7307,-0.0586,0.3335
0.7354,-0.0542,0.3323
0.7385,-0.0498,0.3303
0.7415,-0.0447,0.3291
0.742,-0.0396,0.3274
0.7412,-0.0352,0.3257
0.7385,-0.0303,0.3242
0.7349,-0.0249,0.3218
0.7295,-0.0198,0.3191
0.7222,-0.0142,0.3169
0.7126,-0.009,0.3152
0.7024,-0.0032,0.313
0.6916,0.0037,0.3108
0.6801,0.0095,0.3081
0.6672,0.0159,0.3051
0.655,0.023,0.3025
0.6442,0.0305,0.2993
0.6345,0.0374,0.2961
0.6254,0.044,0.2939
0.6176,0.0511,0.291
0.6127,0.0562,0.289
0.6103,0.0613,0.2885
0.6086,0.0669,0.2878
0.6081,0.0721,0.2868
0.6088,0.0772,0.2871
0.6105,0.0828,0.2902
0.6132,0.088,0.2946
0.6166,0.0923,0.2998
0.6208,0.0963,0.3056
0.6257,0.0994,0.312
0.6308,0.1029,0.3188
0.6376,0.1041,0.3261
0.645,0.1029,0.3342
0.6523,0.1011,0.342
0.6623,0.0989,0.3503
0.6728,0.0955,0.3572
0.6841,0.0911,0.3616
0.6973,0.0853,0.3662
0.7097,0.0774,0.3704
0.7214,0.0687,0.3728
0.7339,0.0594,0.3735
0.7468,0.0489,0.3721
0.7593,0.0381,0.3691
0.7693,0.0266,0.3655
0.7779,0.0147,0.3628
0.7847,0.002,0.3591
0.7901,-0.011,0.354
0.7955,-0.0239,0.3486
0.7996,-0.0369,0.342
0.8003,-0.0484,0.3349
0.7984,-0.0584,0.3266
0.7933,-0.0677,0.3159
0.7857,-0.0755,0.3051
0.7764,-0.0814,0.2951
0.7671,-0.0853,0.2858
0.7564,-0.0875,0.2792
0.7456,-0.0882,0.2748
0.7359,-0.0889,0.2726
0.728,-0.0945,0.2726
0.7205,-0.1055,0.2722
0.7102,-0.1138,0.2722
0.6987,-0.1182,0.2778
0.6887,-0.1195,0.29
0.6794,-0.119,0.3073
0.6716,-0.1187,0.3254
0.6657,-0.119,0.3403
0.6621,-0.1187,0.3516
0.663,-0.1182,0.3586
0.6704,-0.1175,0.364
0.6838,-0.1175,0.3667
0.7029,-0.1185,0.3672
0.7283,-0.1195,0.3677
0.7581,-0.1222,0.3665
0.7916,-0.1246,0.3638
0.8294,-0.1275,0.3591
0.8705,-0.1307,0.3518
0.9135,-0.1351,0.3428
0.9574,-0.141,0.3318
1.0034,-0.1461,0.3196
1.0503,-0.1502,0.3056
1.0984,-0.1539,0.2932
1.1473,-0.1566,0.281
1.1944,-0.1588,0.2687
1.2403,-0.1586,0.2565
1.2848,-0.1556,0.2433
1.3278,-0.152,0.2284
1.3696,-0.1493,0.2108
1.4094,-0.1468,0.1884
1.4468,-0.1451,0.1615
1.4827,-0.1437,0.1327
1.5152,-0.1437,0.0999
1.5445,-0.1451,0.0645
1.5724,-0.1478,0.0266
1.597,-0.1502,-0.0122
1.6198,-0.1529,-0.0489
1.6388,-0.1566,-0.0838
1.6525,-0.1608,-0.117
1.664,-0.1652,-0.148
1.672,-0.1683,-0.1757
1.6755,-0.1681,-0.1979
1.6755,-0.1671,-0.2128
1.6728,-0.1671,-0.2216
1.6662,-0.1678,-0.2243
1.6557,-0.1678,-0.2179
1.6439,-0.1666,-0.203
1.63,-0.1671,-0.182
1.6144,-0.1691,-0.1549
1.598,-0.173,-0.1214
1.5833,-0.1796,-0.0814
1.5706,-0.1874,-0.034
1.5616,-0.1979,0.0198
1.5557,-0.2147,0.0728
1.5494,-0.2338,0.1234
1.5413,-0.2529,0.1727
1.5347,-0.2709,0.2223
1.5316,-0.29,0.2695
1.5328,-0.3108,0.3108
1.5374,-0.332,0.3464
1.5469,-0.355,0.3762
1.5597,-0.3792,0.3987
1.5758,-0.4029,0.4131
1.5943,-0.4253,0.42
1.6151,-0.4463,0.42
1.6349,-0.4659,0.4136
1.6527,-0.484,0.3997
1.6689,-0.4991,0.3794
1.6838,-0.5111,0.355
1.6965,-0.5187,0.3274
1.7053,-0.5223,0.2968
1.7089,-0.5216,0.2653
1.7079,-0.5145,0.2331
1.7016,-0.5013,0.2011
1.6906,-0.4827,0.1708
1.6733,-0.4603,0.1451
1.6515,-0.4344,0.1231
1.6234,-0.406,0.1038
1.5895,-0.375,0.086
1.5491,-0.3425,0.0704
1.503,-0.3098,0.0577
1.4534,-0.2756,0.0493
1.4013,-0.2409,0.0454
1.3493,-0.2081,0.0484
1.3,-0.1776,0.0567
1.253,-0.1483,0.0677
1.2079,-0.1209,0.0806
1.1668,-0.0967,0.0953
1.1299,-0.074,0.1114
1.0967,-0.053,0.1266
1.0669,-0.034,0.141
1.04,-0.0171,0.1546
1.0068,0.0051,0.1735
0.9865,0.0176,0.1827
0.9692,0.0276,0.1925
0.955,0.0354,0.2016
0.943,0.0408,0.2096
0.9315,0.0452,0.216
0.921,0.0493,0.2204
0.9122,0.0518,0.2231
0.9049,0.0523,0.2267
0.8988,0.0493,0.2323
0.8954,0.0428,0.2402
0.8942,0.0337,0.2494
0.8966,0.0222,0.2599
0.9042,0.0071,0.2734
0.9164,-0.0095,0.2863
0.9315,-0.0279,0.2988
0.9482,-0.0474,0.3108
0.9655,-0.0677,0.3203
0.9841,-0.0887,0.3271
1.0041,-0.1102,0.3308
1.0222,-0.1322,0.332
1.0393,-0.1549,0.3318
1.0556,-0.1786,0.3303
1.0701,-0.2023,0.3276
1.0823,-0.2245,0.3244
1.0933,-0.246,0.3205
1.104,-0.266,0.3171
1.1135,-0.2846,0.3147
1.1214,-0.3029,0.3122
1.1294,-0.3205,0.3095
1.1353,-0.3364,0.3073
1.1385,-0.3506,0.3044
1.139,-0.3618,0.2998
1.1377,-0.3709,0.2951
1.1353,-0.3784,0.291
1.1302,-0.384,0.2873
1.1219,-0.3875,0.2829
1.1126,-0.3892,0.278
1.1033,-0.3887,0.2734
1.0928,-0.386,0.2673
1.0796,-0.3819,0.2604
1.0657,-0.376,0.2526
1.0508,-0.3691,0.2446
1.0349,-0.3606,0.2375
1.019,-0.3503,0.2287
1.0041,-0.3389,0.2196
0.9907,-0.3274,0.2118
0.9787,-0.3142,0.2052
0.9667,-0.301,0.1984
0.9535,-0.2871,0.1906
0.9411,-0.2722,0.183
0.9298,-0.2575,0.1744
0.9198,-0.2426,0.1676
0.9098,-0.2274,0.1625
0.9008,-0.213,0.1571
0.8932,-0.1979,0.1522
0.8876,-0.1835,0.1478
0.8829,-0.1705,0.1439
0.8778,-0.1581,0.139
0.8727,-0.1463,0.1341
0.8688,-0.1341,0.129
0.8646,-0.1229,0.1241
0.8597,-0.1124,0.1219
0.8534,-0.1019,0.1197
0.8475,-0.0921,0.1182
0.8419,-0.0828,0.117
0.8353,-0.0755,0.1146
0.8294,-0.0689,0.1126
0.824,-0.0635,0.1119
0.8192,-0.0591,0.1114
0.8145,-0.0569,0.1126
0.8091,-0.0562,0.1153
0.8045,-0.0569,0.1185
0.8016,-0.0579,0.1231
0.7999,-0.0601,0.1266
0.7994,-0.063,0.1292
0.7994,-0.0667,0.1322
0.7999,-0.0713,0.1356
0.7991,-0.0774,0.1405
0.7989,-0.0826,0.1463
0.8001,-0.087,0.1515
0.8016,-0.0919,0.1549
0.803,-0.0987,0.1578
0.8057,-0.1043,0.161
0.8099,-0.108,0.162
0.8148,-0.1116,0.1615
0.8196,-0.116,0.161
0.8243,-0.1204,0.1605
0.8294,-0.1241,0.1586
0.8348,-0.1268,0.1573
0.8402,-0.1292,0.1568
0.8436,-0.1309,0.1571
0.8468,-0.1329,0.1573
0.8502,-0.1346,0.1571
0.8543,-0.1358,0.1554
0.8587,-0.1368,0.1532
0.8617,-0.1385,0.151
0.8644,-0.14,0.1483
0.8668,-0.141,0.1456
0.8697,-0.1422,0.1439
0.8719,-0.1444,0.1434
0.8736,-0.1456,0.1429
0.8751,-0.1466,0.1427
0.8751,-0.1476,0.1429
0.8751,-0.149,0.1432
0.8773,-0.1507,0.1441
0.8785,-0.1517,0.1451
0.8807,-0.1529,0.1463
0.8829,-0.1539,0.1478
0.8846,-0.1559,0.1498
0.8859,-0.1571,0.1527
0.8866,-0.1573,0.1549
0.8878,-0.1578,0.1559
0.8885,-0.1588,0.1573
0.8903,-0.1588,0.16
0.8922,-0.1581,0.1637
0.8951,-0.1581,0.1673
0.8978,-0.1586,0.1717
0.8993,-0.1581,0.1764
0.9015,-0.1581,0.1798
0.9044,-0.1588,0.1823
0.9061,-0.1593,0.1847
0.9086,-0.1605,0.1869
0.9118,-0.1615,0.1903
0.9147,-0.1622,0.193
0.9157,-0.163,0.1947
0.9169,-0.1652,0.1974
0.9176,-0.1683,0.2008
0.9171,-0.1717,0.2025
0.9157,-0.1754,0.2035
0.9135,-0.1783,0.2057
0.9103,-0.1815,0.2084
0.9074,-0.1859,0.2111
0.9049,-0.1908,0.2147
0.9005,-0.1962,0.2179
0.8956,-0.2008,0.2213
0.892,-0.206,0.2245
0.8885,-0.2121,0.2274
0.8846,-0.2184,0.2296
0.8817,-0.2248,0.2323
0.8793,-0.2328,0.2338
0.8775,-0.2406,0.235
0.8768,-0.2482,0.2375
0.8768,-0.2555,0.2399
0.8775,-0.2629,0.2428
0.8797,-0.27,0.2463
0.8822,-0.2766,0.2497
0.8846,-0.2827,0.2536
0.8878,-0.288,0.257
0.8915,-0.2939,0.2602
0.8956,-0.2998,0.2634
0.9005,-0.3068,0.2651
0.9056,-0.313,0.2665
0.9115,-0.3186,0.268
0.9174,-0.324,0.2685
0.9235,-0.3288,0.269
0.9296,-0.3325,0.268
0.9352,-0.3357,0.2678
0.9396,-0.3384,0.2675
0.9442,-0.3389,0.2673
0.9489,-0.3369,0.2673
0.9523,-0.3345,0.2665
0.9543,-0.3315,0.2651
0.9543,-0.3279,0.2631
0.9552,-0.3235,0.2602
0.9567,-0.3183,0.257
0.9572,-0.3122,0.2541
0.9569,-0.3049,0.2519
0.9562,-0.2976,0.2494
0.955,-0.2888,0.2463
0.9538,-0.2795,0.2441
0.953,-0.2704,0.2438
0.9526,-0.2624,0.2441
0.9533,-0.2548,0.2441
0.9574,-0.2443,0.2441
0.9596,-0.2372,0.2433
0.9626,-0.2301,0.2431
0.9672,-0.2235,0.2441
0.9726,-0.2179,0.245
0.9772,-0.2143,0.246
0.9824,-0.2116,0.2475
0.9887,-0.2081,0.2494
0.9958,-0.2052,0.2524
1.0014,-0.2028,0.2563
1.0056,-0.2006,0.2609
1.0097,-0.1991,0.2653
1.0144,-0.1974,0.269
1.019,-0.1957,0.2724
1.0227,-0.1947,0.2753
1.0266,-0.1952,0.2775
1.0302,-0.195,0.2788
1.0324,-0.195,0.2783
1.0334,-0.1952,0.2768
1.0332,-0.1964,0.2736
1.0327,-0.1972,0.2695
1.0312,-0.1979,0.2646
1.029,-0.1981,0.2582
1.0268,-0.1991,0.2519
1.0241,-0.1994,0.245
1.0219,-0.2013,0.2382
1.019,-0.2038,0.2328
1.0166,-0.205,0.2292
1.0153,-0.205,0.2257
1.0158,-0.2055,0.2233
1.017,-0.2062,0.2221
1.0197,-0.206,0.2223
1.0236,-0.205,0.2233
1.028,-0.2038,0.2235
1.0327,-0.203,0.2233
1.0393,-0.2018,0.2238
1.0461,-0.2008,0.2233
1.0537,-0.2006,0.2211
1.0622,-0.1998,0.2165
1.0725,-0.1981,0.2121
1.0847,-0.1959,0.2072
1.0991,-0.1937,0.2008
1.1162,-0.1915,0.1935
1.135,-0.1884,0.1874
1.1543,-0.1854,0.1818
1.1739,-0.1815,0.1737
1.1947,-0.1764,0.1649
1.2159,-0.171,0.1556
1.2362,-0.1661,0.1451
1.2543,-0.1622,0.1329
1.2701,-0.1581,0.118
1.2846,-0.1539,0.1002
1.2965,-0.1502,0.0809
1.3068,-0.1461,0.0616
1.3168,-0.1407,0.0408
1.3246,-0.1368,0.0193
1.3305,-0.1339,-0.0037
1.3342,-0.1312,-0.0276
1.3344,-0.13,-0.054
1.3324,-0.1305,-0.0809
1.3263,-0.1319,-0.1068
1.3156,-0.1349,-0.1317
1.3012,-0.1366,-0.1542
1.2882,-0.1327,-0.1737
1.2748,-0.1295,-0.1898
1.257,-0.1295,-0.205
1.2381,-0.1266,-0.2167
1.2262,-0.1126,-0.2206
1.2147,-0.0989,-0.2228
1.2027,-0.0858,-0.2228
1.1925,-0.0699,-0.2187
1.1807,-0.055,-0.2135
1.1653,-0.0437,-0.2096
1.147,-0.0327,-0.2057
1.1306,-0.0156,-0.1981
1.1172,0.0022,-0.1874
1.1038,0.0159,-0.1759
1.0899,0.0261,-0.1649
1.0764,0.0342,-0.1546
1.0625,0.0408,-0.1432
1.0483,0.0445,-0.1312
1.0329,0.0467,-0.1173
1.0173,0.0486,-0.1019
1.0017,0.0484,-0.086
0.987,0.0472,-0.0704
0.9728,0.0457,-0.054
0.9587,0.043,-0.0371
0.9452,0.0401,-0.0183
0.933,0.0376,0.0015
0.9227,0.0349,0.0215
0.9147,0.0318,0.0415
0.9088,0.0271,0.063
0.9059,0.021,0.0843
0.9054,0.0151,0.1065
0.9069,0.0073,0.129
0.9105,-0.0015,0.1507
0.9171,-0.0115,0.1717
0.9247,-0.0227,0.1913
0.934,-0.0357,0.2079
0.9457,-0.0501,0.2223
0.9579,-0.066,0.2338
0.9697,-0.0811,0.2424
0.9811,-0.0977,0.2485
0.9936,-0.1151,0.2536
1.0065,-0.1322,0.257
1.0195,-0.1483,0.2585
1.0322,-0.1652,0.2565
1.0451,-0.1825,0.2519
1.0569,-0.1996,0.2453
1.0664,-0.2155,0.237
1.0742,-0.2301,0.2272
1.0813,-0.2441,0.2167
1.0884,-0.2565,0.2064
1.0942,-0.2687,0.1952
1.0984,-0.2805,0.1825
1.0999,-0.2919,0.17
1.1006,-0.3025,0.1588
1.1018,-0.3117,0.1476
1.1021,-0.3205,0.1361
1.0994,-0.3283,0.1244
1.0933,-0.3357,0.1136
1.084,-0.3408,0.1055
1.0737,-0.343,0.0987
1.064,-0.343,0.0931
1.0547,-0.3411,0.0901
1.0439,-0.3379,0.0906
1.0334,-0.333,0.0916
1.0229,-0.3259,0.0928
1.0129,-0.3181,0.0955
1.0051,-0.3093,0.0997
0.9975,-0.3,0.1043
0.9899,-0.2895,0.1087
0.9828,-0.2788,0.1136
0.9767,-0.2687,0.1185
0.9714,-0.259,0.1219
0.9657,-0.2494,0.1256
0.9589,-0.2387,0.13
0.9521,-0.2282,0.1336
0.9455,-0.2179,0.1368
0.9403,-0.2072,0.1397
0.9352,-0.1964,0.1434
0.9301,-0.1847,0.1478
0.9252,-0.1732,0.1529
0.9193,-0.1625,0.1586
0.9137,-0.152,0.163
0.9096,-0.141,0.1664
0.9039,-0.1312,0.1693
0.8988,-0.1222,0.1739
0.8944,-0.1136,0.1786
0.889,-0.1055,0.1815
0.8844,-0.0975,0.1832
0.8807,-0.0892,0.1845
0.8768,-0.0809,0.1854
0.8722,-0.0738,0.1854
0.8675,-0.0677,0.1854
0.8617,-0.0618,0.1857
0.8563,-0.0559,0.1847
0.8521,-0.0508,0.1832
0.8482,-0.0462,0.182
0.8458,-0.0408,0.181
0.8443,-0.0369,0.1796
0.8426,-0.0344,0.1776
0.8416,-0.0318,0.1769
0.8407,-0.0298,0.1761
0.8404,-0.0279,0.1766
0.8419,-0.0264,0.1776
0.8431,-0.0264,0.1788
0.846,-0.0281,0.1818
0.8482,-0.0303,0.1832
0.8502,-0.0335,0.1854
0.8509,-0.0369,0.1881
0.8521,-0.0423,0.1898
0.8558,-0.0496,0.1908
0.8604,-0.0569,0.192
0.8644,-0.0638,0.1932
0.867,-0.0713,0.1932
0.869,-0.0796,0.1932
0.8697,-0.0875,0.1937
0.8702,-0.0945,0.195
0.8702,-0.1029,0.1962
0.871,-0.1102,0.1969
0.8736,-0.1158,0.1996
0.8758,-0.1231,0.2028
0.8775,-0.1344,0.2028
0.8778,-0.1471,0.2003
0.8768,-0.1586,0.1974
0.8758,-0.1688,0.1954
0.8744,-0.1781,0.1954
0.8727,-0.1862,0.1959
0.8727,-0.193,0.1976
0.8729,-0.1989,0.1998
0.8722,-0.2052,0.2038
0.8719,-0.2108,0.2079
0.8736,-0.2155,0.2118
0.8741,-0.2209,0.214
0.8758,-0.2233,0.2187
0.879,-0.226,0.224
0.8817,-0.227,0.227
0.8873,-0.2257,0.2316
0.8932,-0.227,0.235
0.8964,-0.2284,0.2365
0.9008,-0.2272,0.238
0.9056,-0.2267,0.2392
0.9086,-0.226,0.2387
0.9115,-0.2248,0.2382
0.9147,-0.2221,0.2397
0.9196,-0.2194,0.2411
0.9232,-0.216,0.2411
0.9257,-0.2121,0.2406
0.9284,-0.2091,0.2404
0.9313,-0.2062,0.2406
0.9337,-0.2028,0.2419
0.9364,-0.1989,0.2433
0.9381,-0.195,0.2443
0.9394,-0.1906,0.2465
0.9403,-0.1854,0.2482
0.9413,-0.1808,0.2504
0.9413,-0.1783,0.2531
0.9413,-0.1766,0.2573
0.9408,-0.1735,0.2612
0.9389,-0.1705,0.2646
0.9364,-0.1673,0.267
0.9333,-0.1642,0.269
0.9298,-0.161,0.2704
0.9262,-0.1571,0.2719
0.9232,-0.1522,0.2744
0.9203,-0.1473,0.2766
0.9169,-0.1424,0.2778
0.9142,-0.1373,0.2785
0.9139,-0.1314,0.2785
0.9144,-0.1263,0.278
0.9157,-0.1224,0.2756
0.9176,-0.1178,0.27
0.9193,-0.1124,0.2624
0.9218,-0.1063,0.2541
0.9262,-0.0987,0.247
0.9311,-0.0909,0.2402
0.9359,-0.0833,0.2309
0.9406,-0.0743,0.2194
0.946,-0.0643,0.2064
0.9504,-0.0545,0.1935
0.9543,-0.0452,0.1803
0.9594,-0.0364,0.1649
0.964,-0.0274,0.1498
0.9687,-0.0191,0.1349
0.9731,-0.0112,0.1204
0.9787,-0.0037,0.106
0.9855,0.0039,0.0923
0.9919,0.011,0.0796
0.9985,0.0181,0.0662
1.0051,0.0259,0.0535
1.0124,0.0337,0.0418
1.0195,0.0415,0.03
1.0261,0.0479,0.0188
1.0327,0.053,0.0088
1.0403,0.0579,-0.0012
1.0476,0.0623,-0.0115
1.0544,0.0657,-0.021
1.0605,0.0691,-0.0296
1.0674,0.0721,-0.0386
1.0732,0.0745,-0.0469
1.0781,0.0762,-0.0542
1.082,0.0765,-0.0608
1.0869,0.0743,-0.0672
1.092,0.0704,-0.0728
1.096,0.0645,-0.0755
1.0982,0.0572,-0.0765
1.0967,0.0489,-0.076
1.0918,0.0391,-0.0721
1.083,0.0279,-0.0667
1.0696,0.0164,-0.0594
1.0532,0.0017,-0.0486
1.0349,-0.0144,-0.0366
1.0166,-0.0303,-0.0237
0.9997,-0.0467,-0.0103
0.9841,-0.0655,0.0034
0.9723,-0.0867,0.0193
0.9628,-0.108,0.0374
0.9552,-0.1302,0.0559
0.9499,-0.1537,0.0733
0.9469,-0.1781,0.0916
0.9433,-0.2035,0.1104
0.9408,-0.2292,0.1266
0.9406,-0.2514,0.1417
0.9418,-0.2729,0.1542
0.9457,-0.2946,0.16
0.956,-0.3115,0.1634
0.9655,-0.3335,0.1634
0.9716,-0.363,0.1568
0.975,-0.3933,0.1441
0.9753,-0.4209,0.1278
0.976,-0.4481,0.1109
0.9789,-0.4757,0.0914
0.9806,-0.5023,0.0674
0.9797,-0.5257,0.0408
0.9799,-0.546,0.0147
0.9841,-0.5685,-0.0076
0.9892,-0.5917,-0.0296
0.9926,-0.6122,-0.053
0.9973,-0.6293,-0.0748
1.0063,-0.6452,-0.0945
1.0173,-0.6601,-0.1124
1.0271,-0.6709,-0.1302
1.0385,-0.6775,-0.1439
1.052,-0.6792,-0.1544
1.0647,-0.6762,-0.1656
1.0769,-0.6679,-0.1759
1.0918,-0.6543,-0.1825
1.1077,-0.631,-0.1874
1.1184,-0.5934,-0.1906
1.1209,-0.5424,-0.1891
1.1192,-0.4845,-0.1801
1.117,-0.4258,-0.1654
1.1179,-0.3701,-0.1485
1.1223,-0.3181,-0.1341
1.1294,-0.2697,-0.1239
1.1365,-0.2238,-0.1168
1.1436,-0.1813,-0.1124
1.1502,-0.1432,-0.108
1.1585,-0.1092,-0.1043
1.168,-0.0799,-0.1031
1.1776,-0.0547,-0.1038
1.1861,-0.0327,-0.106
1.1944,-0.0127,-0.108
1.2022,0.0039,-0.1082
1.2093,0.0173,-0.1082
1.2174,0.0293,-0.1068
1.2235,0.0396,-0.1053
1.2281,0.0501,-0.1011
1.2345,0.0616,-0.0941
1.2421,0.073,-0.0836
1.2477,0.0831,-0.0706
1.2526,0.0897,-0.0562
1.2562,0.0955,-0.041
1.2594,0.1031,-0.0227
1.2577,0.109,0.002
1.2574,0.1141,0.0193
1.2555,0.1173,0.0359
1.2511,0.117,0.0513
1.2435,0.1141,0.0657
1.2315,0.1087,0.0782
1.2157,0.1009,0.0882
1.1969,0.0904,0.0963
1.1746,0.0784,0.1026
1.1504,0.0652,0.1073
1.1255,0.0506,0.1112
1.1008,0.0349,0.1151
1.0779,0.0186,0.119
1.0564,0.0015,0.1234
1.0383,-0.0164,0.128
1.0249,-0.0344,0.1334
1.0156,-0.054,0.1393
1.0085,-0.0745,0.1441
1.0029,-0.0943,0.1483
0.9995,-0.1131,0.1512
0.998,-0.1322,0.1529
0.997,-0.1512,0.1539
0.9955,-0.1688,0.1537
0.9938,-0.1864,0.1517
0.9921,-0.2038,0.1471
0.9904,-0.2199,0.1415
0.9875,-0.2355,0.1351
0.9824,-0.2497,0.1292
0.9753,-0.2629,0.1248
0.9687,-0.2763,0.1222
0.9621,-0.2895,0.118
0.9545,-0.3005,0.1126
0.9462,-0.3103,0.1077
0.9372,-0.3198,0.1038
0.9289,-0.3286,0.1009
0.9201,-0.3359,0.098
0.9118,-0.3433,0.0941
0.9027,-0.3498,0.0916
0.8939,-0.3545,0.0909
0.8849,-0.3579,0.0904
0.8766,-0.3616,0.0914
0.869,-0.3638,0.0933
0.8617,-0.3655,0.0958
0.8541,-0.3674,0.098
0.848,-0.3677,0.1007
0.8426,-0.3677,0.106
0.8375,-0.3672,0.1136
0.8326,-0.3652,0.1214
0.8272,-0.3621,0.1285
0.8216,-0.3584,0.1351
0.8165,-0.355,0.1432
0.8118,-0.3508,0.1522
0.8074,-0.3464,0.1608
0.804,-0.3413,0.1695
0.8008,-0.3352,0.1771
0.7979,-0.3288,0.1842
0.7955,-0.3222,0.1903
0.7933,-0.3159,0.1964
0.7911,-0.3093,0.2016
0.7891,-0.3017,0.2055
0.7872,-0.2939,0.2086
0.7852,-0.2856,0.2106
0.7842,-0.2783,0.2121
0.784,-0.2702,0.2118
0.7835,-0.2612,0.2108
0.7835,-0.2533,0.2089
0.7832,-0.2463,0.206
0.7832,-0.2389,0.2025
0.7852,-0.2309,0.1996
0.7881,-0.2223,0.1969
0.7911,-0.2143,0.1935
0.7938,-0.2062,0.1901
0.7959,-0.1989,0.1854
0.7974,-0.1915,0.1813
0.7984,-0.1854,0.1776
0.8003,-0.1798,0.1732
0.8025,-0.1735,0.1688
0.8047,-0.1664,0.1644
0.8074,-0.161,0.16
0.8106,-0.1593,0.1539
0.8138,-0.1571,0.1476
0.817,-0.151,0.1439
0.8189,-0.1429,0.1427
0.8223,-0.1356,0.1412
0.827,-0.1302,0.1393
0.8316,-0.1266,0.1363
0.8367,-0.1244,0.1317
0.8407,-0.1222,0.1268
0.8433,-0.1224,0.1226
0.8438,-0.1248,0.1178
0.8419,-0.1322,0.1104
0.8424,-0.1356,0.1029
0.8448,-0.1331,0.098
0.8455,-0.1329,0.0931
0.8485,-0.1305,0.0904
0.8526,-0.1292,0.0894
0.8541,-0.1322,0.086
0.8568,-0.1317,0.0826
0.8609,-0.1297,0.0821
0.8644,-0.1287,0.0816
0.8646,-0.1287,0.0804
0.8644,-0.1297,0.0792
0.8626,-0.1317,0.0774
0.8617,-0.1358,0.0752
0.8602,-0.1407,0.0733
0.8578,-0.1444,0.0716
0.8541,-0.1488,0.0701
0.8514,-0.1534,0.0706
0.8497,-0.1573,0.0738
0.8487,-0.1612,0.0782
0.8482,-0.1652,0.0836
0.8504,-0.1691,0.0901
0.8541,-0.172,0.0985
0.858,-0.1749,0.108
0.8629,-0.1786,0.1197
0.869,-0.1837,0.1319
0.8766,-0.1876,0.1441
0.8846,-0.1923,0.1578
0.8927,-0.1967,0.1722
0.901,-0.2013,0.1869
0.9093,-0.2064,0.202
0.9191,-0.2121,0.2165
0.9281,-0.2184,0.2306
0.9369,-0.2255,0.2438
0.946,-0.2318,0.2541
0.9533,-0.2382,0.2636
0.9599,-0.2448,0.2717
0.967,-0.2511,0.278
0.9733,-0.2582,0.2829
0.9797,-0.2648,0.2873
0.9848,-0.2714,0.2915
0.9892,-0.2778,0.2939
0.9921,-0.2844,0.2971
0.9936,-0.2907,0.2993
0.9941,-0.2956,0.3007
0.9933,-0.3,0.3017
0.9912,-0.3039,0.3027
0.9872,-0.3068,0.3034
0.9821,-0.3095,0.3042
0.976,-0.3103,0.3042
0.9689,-0.3112,0.3027
0.9618,-0.312,0.3003
0.9533,-0.3112,0.2981
0.9445,-0.3098,0.2956
0.9357,-0.3083,0.2932
0.9274,-0.3066,0.2907
0.9201,-0.3046,0.288
0.9127,-0.3027,0.2841
0.9052,-0.2998,0.279
0.8973,-0.2961,0.2746
0.891,-0.2924,0.2714
0.8856,-0.2875,0.2697
0.8812,-0.2824,0.2673
0.8773,-0.2775,0.2653
0.8741,-0.2724,0.2643
0.8719,-0.2675,0.2636
0.871,-0.2629,0.2631
0.8712,-0.2582,0.2621
0.8717,-0.2529,0.2609
0.8734,-0.248,0.2597
0.8756,-0.2446,0.2585
0.8788,-0.2424,0.258
0.8819,-0.2394,0.2575
0.8849,-0.2372,0.2573
0.8878,-0.2348,0.257
0.891,-0.2318,0.2565
0.8944,-0.2294,0.2558
0.8978,-0.2274,0.2548
0.9005,-0.2255,0.2536
0.9027,-0.2245,0.2533
0.9052,-0.224,0.2533
0.9074,-0.2223,0.2541
0.9103,-0.2216,0.2543
0.9132,-0.2209,0.2546
0.9164,-0.2211,0.2541
0.9198,-0.2218,0.2541
0.9225,-0.2221,0.2553
0.9249,-0.2226,0.257
0.9291,-0.2228,0.259
0.9337,-0.2231,0.2626
0.9406,-0.2248,0.2682
0.9457,-0.2262,0.2726
0.9513,-0.2274,0.277
0.9579,-0.2287,0.2817
0.964,-0.2309,0.2875
0.9701,-0.2343,0.2944
0.9772,-0.2375,0.3012
0.9848,-0.2406,0.3093
0.9924,-0.2443,0.3181
0.9987,-0.2477,0.3281
1.0056,-0.2504,0.3381
1.0124,-0.2538,0.3484
1.0183,-0.2577,0.3574
1.0234,-0.2602,0.3662
1.0273,-0.2646,0.3765
1.0307,-0.2695,0.3867
1.0351,-0.2734,0.3955
1.0395,-0.2768,0.4024
1.0432,-0.2814,0.4092
1.0461,-0.2861,0.4168
1.0473,-0.2895,0.4244
1.0476,-0.2929,0.43
1.0473,-0.2968,0.4344
1.0478,-0.3,0.4378
1.0478,-0.3034,0.4398
1.0476,-0.3071,0.441
1.0464,-0.3103,0.4412
1.0442,-0.3125,0.44
1.0427,-0.3147,0.4376
1.0415,-0.3149,0.4341
1.0395,-0.3152,0.4292
1.0376,-0.3154,0.4234
1.0354,-0.3144,0.4178
